time,ax,ay,az,aT
1.9680,0.3328,1.4818,-0.4787,1.592
1.9750,0.2822,1.4377,-0.4598,1.536
1.9850,0.3479,1.5216,-0.4353,1.620
1.9960,0.5152,1.6764,-0.3618,1.791
2.0060,0.8025,1.9540,-0.5220,2.176
2.0200,1.0164,2.1853,-0.5699,2.477
2.0260,1.4340,2.3796,-0.5960,2.841
2.0380,1.9925,2.4210,-0.3094,3.151
2.0460,2.6545,2.5814,0.2463,3.711
2.0580,3.5987,2.7590,1.0441,4.653
2.0680,4.4496,3.0779,2.1796,5.833
2.0760,5.1759,3.3653,3.0407,6.882
2.0870,5.7370,3.7803,3.6855,7.797
2.0960,6.3530,4.2790,4.1776,8.725
2.1050,6.9409,4.8496,4.4217,9.552
2.1210,7.4748,5.3473,4.4582,10.215
2.1250,7.9231,5.9139,4.5578,10.887
2.1360,8.4344,6.5373,5.2019,11.872
2.1470,8.9349,6.9123,5.9716,12.778
2.1560,9.0579,7.2029,6.4451,13.246
2.1650,8.9502,7.3631,6.5660,13.320
2.1770,8.7489,7.3842,6.5715,13.201
2.1880,8.4442,7.1661,6.5114,12.847
2.2070,8.0645,6.8951,6.3069,12.343
2.2100,7.6281,6.6790,6.3686,11.973
2.2200,7.1682,6.3777,6.5036,11.591
2.2260,6.6237,6.0383,6.4751,11.057
2.2350,6.3702,5.3984,6.2724,10.443
2.2460,6.6010,4.8900,6.1410,10.257
2.2550,7.2143,4.0323,6.3532,10.424
2.2680,7.8828,3.0099,6.7218,10.788
2.2750,8.6349,2.0030,6.9197,11.245
2.2850,9.1250,0.9993,6.9152,11.493
2.2950,9.4070,0.0504,6.6960,11.547
2.3060,9.4495,-0.7578,6.3275,11.398
2.3220,9.7172,-1.4566,5.9298,11.476
2.3350,9.5449,-2.0435,5.6640,11.285
2.3380,8.8746,-2.3816,5.3650,10.640
2.3450,8.0318,-2.5643,4.9209,9.762
2.3560,7.1489,-2.6446,4.5281,8.866
2.3650,6.3735,-2.9034,4.4086,8.276
2.3760,5.7590,-3.1744,4.3757,7.899
2.3850,5.1587,-3.5084,4.3074,7.581
2.3940,4.2409,-3.7718,4.1027,7.003
2.4050,3.2725,-3.8875,3.6746,6.271
2.4150,2.3733,-4.0689,3.1856,5.687
2.4240,1.6463,-4.2976,2.6831,5.327
2.4350,0.9763,-4.5216,2.2905,5.162
2.4450,0.5598,-4.8721,1.9134,5.264
2.4560,0.1838,-5.2251,1.6382,5.479
2.4660,-0.0865,-5.6003,1.4325,5.781
2.4760,-0.3109,-5.9746,1.2845,6.119
2.4850,-0.4491,-6.4621,1.1599,6.581
2.4950,-0.4757,-7.0010,0.8727,7.071
2.5050,-0.5471,-7.3992,0.6264,7.446
2.5160,-0.6571,-7.8848,0.1765,7.914
2.5250,-0.8944,-8.2376,-0.2124,8.289
2.5350,-1.0895,-8.5024,-0.5897,8.592
2.5450,-1.2887,-8.7671,-0.7989,8.897
2.5560,-1.4844,-9.0289,-0.9633,9.201
2.5660,-1.6718,-9.1630,-0.9241,9.360
2.5750,-1.8586,-9.2917,-0.8633,9.515
2.5860,-2.0871,-9.3032,-0.8561,9.573
2.5940,-2.2515,-9.3589,-0.9011,9.668
2.6080,-2.3846,-9.5229,-0.9554,9.863
2.6260,-2.3428,-9.7351,-1.0647,10.069
2.6290,-2.3987,-9.9739,-1.2757,10.337
2.6400,-2.4936,-10.1710,-1.3648,10.561
2.6560,-2.6498,-10.1101,-1.4747,10.555
2.6590,-2.8957,-9.9977,-1.6156,10.533
2.6750,-3.2174,-9.8620,-1.7487,10.520
2.6800,-3.4485,-9.6893,-1.8714,10.454
2.7050,-3.6186,-9.4935,-1.9116,10.338
2.7070,-3.8530,-9.3658,-2.0466,10.332
2.7090,-4.1193,-9.2498,-1.9533,10.312
2.7230,-4.3942,-9.0412,-1.8990,10.230
2.7260,-4.6978,-8.7788,-1.8572,10.128
2.7390,-4.8735,-8.6875,-1.7373,10.111
2.7560,-4.9328,-8.8366,-1.5408,10.237
2.7590,-4.8728,-9.0359,-1.3139,10.350
2.7700,-4.7993,-9.1114,-1.0166,10.348
2.7750,-4.4151,-9.0379,-0.6196,10.078
2.7870,-3.9098,-8.9988,-0.3086,9.816
2.7950,-3.1810,-8.8707,-0.2201,9.426
2.8060,-2.4059,-8.6662,-0.1901,8.996
2.8190,-1.7970,-8.5375,-0.1834,8.727
2.8250,-1.5091,-8.4281,-0.2124,8.565
2.8380,-1.4354,-8.4309,-0.2948,8.557
2.8450,-1.3703,-8.5608,-0.3791,8.678
2.8580,-1.2329,-8.6645,-0.1650,8.753
2.8680,-0.8519,-8.7487,0.1084,8.791
2.8780,-0.3186,-8.9272,0.6884,8.959
2.8940,0.3912,-9.0706,1.2082,9.159
2.9070,1.3462,-9.1758,1.7416,9.436
2.9100,2.3813,-9.2069,2.2046,9.762
2.9180,3.5856,-9.2030,2.5821,10.209
2.9290,4.9248,-8.9339,2.7796,10.573
2.9350,6.0289,-8.4234,2.9342,10.766
2.9450,6.7984,-7.4797,3.0639,10.562
2.9550,7.2607,-6.3626,3.2096,10.174
2.9670,7.1736,-5.0873,3.3768,9.420
2.9750,6.5721,-3.7679,3.6634,8.415
2.9900,5.5680,-2.3180,3.8567,7.159
2.9950,4.5103,-1.0302,4.1089,6.188
3.0060,3.2752,0.1208,4.1969,5.325
3.0190,2.2168,1.1523,4.3065,4.979
3.0260,1.3581,1.9878,4.3085,4.935
3.0430,0.7895,2.6782,4.1356,4.990
3.0460,0.5195,3.2161,4.0868,5.226
3.0620,0.5869,3.5338,3.9303,5.318
3.0690,0.8091,3.6802,3.6912,5.275
3.0750,1.0565,3.7461,3.2160,5.049
3.0850,1.3633,3.7693,2.7007,4.833
3.0960,1.6601,3.6678,2.1110,4.546
3.1080,1.9403,3.5861,1.6725,4.407
3.1180,2.1925,3.3806,1.1936,4.202
3.1250,2.3931,3.2262,1.0538,4.153
3.1360,2.6857,3.0614,0.9367,4.179
3.1450,3.1822,2.6923,0.8411,4.252
3.1550,3.5208,2.4180,0.8403,4.353
3.1680,3.8371,2.3488,0.8944,4.587
3.1740,3.8991,2.4864,0.8915,4.710
3.1880,3.8086,2.6875,0.8972,4.747
3.1980,3.4047,3.0354,0.8725,4.644
3.2070,3.0898,3.3257,0.7553,4.602
3.2170,3.0654,3.5030,0.6590,4.701
3.2250,3.2609,3.6512,0.8210,4.964
3.2350,3.7924,3.7814,1.0479,5.457
3.2450,4.4671,3.8963,1.3628,6.082
3.2560,5.1922,3.9499,1.8525,6.782
3.2680,5.6874,4.1015,2.1964,7.348
3.2750,6.0413,4.3344,2.4779,7.837
3.2870,6.3765,4.5465,2.6820,8.278
3.2950,6.4236,4.8281,2.8228,8.517
3.3060,6.3875,5.2029,3.1785,8.830
3.3230,6.2906,5.5501,3.5799,9.121
3.3260,6.3298,5.7507,4.0122,9.446
3.3370,6.6084,5.7702,4.3169,9.778
3.3480,6.9292,5.7853,4.6236,10.142
3.3550,7.4094,5.5643,4.8475,10.458
3.3660,7.9437,5.2439,4.9428,10.725
3.3750,8.2102,4.8456,5.0351,10.781
3.3850,8.2600,4.5112,5.0581,10.685
3.3940,7.8511,4.2978,4.9726,10.239
3.4050,7.1570,4.2206,4.7665,9.579
3.4150,6.4065,4.2383,4.6592,8.984
3.4250,5.8091,4.1751,4.4991,8.451
3.4350,5.5075,3.8856,4.2990,7.994
3.4440,5.6216,3.3991,4.0313,7.708
3.4610,6.2412,2.8162,3.7222,7.794
3.4670,7.1265,2.0851,3.5562,8.233
3.4750,8.0290,1.1194,3.4463,8.809
3.4850,8.8935,0.1552,3.4044,9.524
3.4950,9.7326,-0.7967,3.4387,10.353
3.5050,10.0283,-1.8647,3.4733,10.775
3.5150,9.8295,-2.7451,3.4311,10.767
3.5250,9.1648,-3.2699,3.5831,10.369
3.5350,8.2613,-3.5519,3.7421,9.740
3.5460,7.2279,-3.6481,3.5533,8.842
3.5550,6.2262,-3.7345,3.2333,7.948
3.5650,5.2125,-3.9504,2.8343,7.128
3.5750,4.1300,-4.1246,2.4451,6.328
3.5860,3.0849,-4.2720,2.2892,5.745
3.5950,1.9909,-4.3675,1.9956,5.198
3.6050,0.8123,-4.3316,1.7466,4.741
3.6280,-0.1004,-4.4590,1.5109,4.709
3.6300,-0.9524,-4.5233,1.1168,4.755
3.6410,-1.6297,-4.6618,0.9893,5.037
3.6500,-1.9986,-4.8075,0.7671,5.263
3.6560,-2.2951,-5.1444,0.5862,5.664
3.6650,-2.4399,-5.5530,0.4061,6.079
3.6750,-2.3204,-6.0030,0.2450,6.441
3.6870,-2.1267,-6.7108,-0.0502,7.040
3.6940,-1.9519,-7.3565,-0.4518,7.624
3.7050,-1.9263,-7.7803,-0.6596,8.042
3.7170,-1.9972,-8.1041,-0.8445,8.389
3.7240,-2.2227,-8.2359,-0.9176,8.580
3.7430,-2.4892,-8.2153,-0.9736,8.639
3.7450,-2.7406,-8.2600,-1.0889,8.771
3.7570,-2.9295,-8.3043,-1.3492,8.909
3.7670,-3.0374,-8.4888,-1.4169,9.127
3.7740,-3.0933,-8.6470,-1.5212,9.309
3.7850,-3.1985,-8.8883,-1.4893,9.563
3.7940,-3.2424,-8.9103,-1.5473,9.607
3.8050,-3.3051,-8.9160,-1.5141,9.629
3.8160,-3.4440,-8.8228,-1.4306,9.579
3.8250,-3.6208,-8.6240,-1.4414,9.464
3.8350,-3.7353,-8.5787,-1.5351,9.482
3.8440,-3.7925,-8.5160,-1.6383,9.465
3.8550,-3.7879,-8.5366,-1.5942,9.474
3.8680,-3.8654,-8.4652,-1.6356,9.449
3.8740,-3.9154,-8.5372,-1.5751,9.523
3.8890,-3.9623,-8.4808,-1.5457,9.487
3.8950,-4.1647,-8.5213,-1.3785,9.584
3.9060,-4.3466,-8.4666,-1.2161,9.595
3.9160,-4.5374,-8.5690,-1.0215,9.750
3.9240,-4.7673,-8.5771,-0.9110,9.855
3.9360,-4.8887,-8.7225,-0.5940,10.017
3.9450,-4.7256,-8.8777,-0.1922,10.059
3.9560,-4.0352,-9.2256,0.1598,10.071
3.9650,-3.1147,-9.6251,0.4559,10.127
3.9750,-2.2117,-10.0483,0.5179,10.302
3.9870,-1.3430,-10.3098,0.4056,10.405
4.0120,-1.0653,-10.1999,0.3143,10.260
4.0160,-1.3466,-9.5664,0.3113,9.666
4.0270,-1.6436,-8.7729,0.5760,8.944
4.0290,-1.6256,-7.9552,0.8154,8.160
4.0500,-1.3741,-7.5129,1.3134,7.750
4.0520,-0.5987,-7.3786,1.6969,7.595
4.0590,0.3327,-7.6111,1.8627,7.843
4.0690,1.2389,-7.9052,1.9346,8.232
4.0760,2.2466,-8.1417,1.9079,8.659
4.0850,3.5265,-8.3131,2.0580,9.262
4.0940,4.7468,-8.5221,2.2301,10.007
4.1050,6.2426,-8.2687,2.3916,10.633
4.1170,7.6019,-7.7012,2.8216,11.183
4.1260,8.9040,-6.8856,3.2086,11.704
4.1350,9.4664,-5.5822,3.8532,11.646
4.1440,9.3261,-4.0459,4.2212,11.007
4.1570,8.3890,-2.1801,4.0541,9.569
4.1830,7.0806,-0.4313,3.6379,7.972
4.1850,5.8673,1.0216,3.2426,6.781
4.1870,4.5889,2.0689,2.8278,5.774
4.1980,3.3629,2.9066,2.3137,5.011
4.2080,2.2223,3.5447,1.8777,4.586
4.2160,1.1148,3.8876,1.5675,4.337
4.2260,0.2581,4.1247,1.2502,4.318
4.2360,-0.3612,4.3327,1.0597,4.475
4.2450,-0.6113,4.3274,0.8280,4.448
4.2560,-0.6212,4.2502,0.4735,4.321
4.2680,-0.3771,4.0785,0.2013,4.101
4.2750,0.1480,3.8223,-0.1406,3.828
4.2880,0.7454,3.5202,-0.3169,3.612
4.2940,1.2417,3.1027,-0.4518,3.372
4.3240,1.5537,2.7683,-0.5312,3.219
4.3290,1.8107,2.5711,-0.5834,3.198
4.3310,1.8827,2.5535,-0.5794,3.225
4.3390,1.7909,2.5743,-0.5026,3.176
4.3490,1.7490,2.5164,-0.3280,3.082
4.3590,1.8025,2.4251,-0.2207,3.030
4.3700,1.9064,2.4422,-0.1783,3.103
4.3760,2.0061,2.4597,-0.1416,3.177
4.3850,1.9063,2.6940,-0.0240,3.300
4.3950,1.9208,3.1151,0.2838,3.671
4.4070,1.8372,3.4490,0.5566,3.947
4.4180,1.9508,3.6376,0.9132,4.228
4.4280,2.2197,3.8118,1.2267,4.578
4.4630,2.7888,3.8244,1.6947,5.027
4.4650,3.2756,3.8319,2.2370,5.515
4.4650,3.9165,3.9683,2.7585,6.221
4.4770,4.6483,4.1160,3.2894,7.026
4.4900,5.4690,4.4206,3.8990,8.041
4.4950,6.0951,4.7799,4.4755,8.946
4.5010,6.5808,5.2618,4.9493,9.772
4.5050,6.9418,5.6535,5.1686,10.338
4.5210,7.2887,5.9574,5.4074,10.856
4.5270,7.5455,6.0074,5.4867,11.096
4.5440,7.7392,5.9705,5.4183,11.176
4.5520,8.0408,5.7493,5.3985,11.263
4.5610,8.1246,5.2816,5.5149,11.150
4.5930,7.8765,4.8595,5.5147,10.773
4.5950,7.3270,4.5312,5.4015,10.168
4.5960,6.6035,4.2115,5.2475,9.428
4.5980,5.7729,4.1426,4.8676,8.613
4.6090,5.1125,4.0502,4.7654,8.078
4.6170,4.8937,3.8410,4.6600,7.773
4.6270,5.0413,3.3544,4.7146,7.674
4.6360,5.5591,2.5947,4.5538,7.640
4.6460,6.1729,1.6663,4.4353,7.782
4.6630,6.7915,0.7267,4.4283,8.140
4.6680,7.2641,-0.2515,4.4233,8.509
4.6750,7.6121,-1.0073,4.3463,8.823
4.6870,7.7710,-1.8006,4.1535,8.993
4.7030,7.6589,-2.4084,4.0433,8.989
4.7110,7.4277,-2.9294,3.9652,8.915
4.7590,7.0705,-3.3724,3.8444,8.726
4.7660,6.5509,-3.4790,3.8160,8.341
4.7690,5.7549,-3.4481,3.6427,7.634
4.7710,4.9391,-3.3100,3.6042,6.953
4.7720,4.0103,-3.2238,3.5422,6.247
4.7740,3.1852,-3.1152,3.3509,5.575
4.7800,2.5930,-3.0359,2.7694,4.859
4.7870,2.1336,-3.0683,2.1761,4.325
4.7940,1.7361,-3.1977,1.5826,3.968
4.8070,1.3737,-3.4568,0.8678,3.820
4.8190,1.0523,-3.6400,0.2949,3.800
4.8260,0.7436,-3.7013,-0.0750,3.776
4.8370,0.6518,-3.8243,-0.2976,3.891
4.8460,0.5508,-4.0940,-0.4525,4.156
4.8610,0.6107,-4.6522,-0.5867,4.729
4.8880,0.7609,-5.2123,-1.0045,5.362
4.8900,0.9174,-5.7503,-1.5967,6.038
4.8910,0.9282,-6.3787,-2.1180,6.785
4.8950,0.7182,-6.8813,-2.5642,7.379
4.9150,0.5682,-7.2377,-3.1064,7.897
4.9210,0.3842,-7.5497,-3.6184,8.381
4.9270,0.0871,-8.0076,-4.0298,8.965
4.9390,-0.1405,-8.3424,-4.1510,9.319
4.9540,-0.4490,-8.5197,-4.2184,9.517
4.9660,-0.8308,-8.6048,-4.0988,9.567
4.9760,-1.2074,-8.5570,-4.0175,9.530
4.9790,-1.5121,-8.5316,-4.0638,9.570
4.9900,-1.6454,-8.5914,-4.0997,9.661
5.0040,-1.6673,-8.6778,-4.0823,9.734
5.0080,-1.6040,-8.8425,-4.3261,9.974
5.0460,-1.4793,-8.7723,-4.5354,9.986
5.0500,-1.4714,-8.8500,-4.8693,10.208
5.0530,-1.3590,-8.8274,-5.0949,10.282
5.0540,-1.2075,-8.8605,-4.9888,10.240
5.0630,-0.9770,-8.8932,-4.9650,10.232
5.0700,-0.7654,-8.9757,-5.2029,10.403
5.0770,-0.7042,-9.0176,-5.5620,10.618
5.0900,-0.8778,-9.1227,-6.0126,10.961
5.0950,-1.2010,-9.1298,-6.3176,11.167
5.1070,-1.5097,-9.1498,-6.3525,11.241
5.1160,-1.7364,-9.1793,-6.1494,11.184
5.1250,-1.8565,-9.1920,-5.7293,10.989
5.1460,-1.6708,-9.0246,-5.1660,10.532
5.1770,-1.2622,-8.9467,-4.5413,10.112
5.1800,-0.7794,-8.9714,-3.9599,9.837
5.1810,-0.1791,-8.8872,-3.7230,9.637
5.1830,0.2978,-8.7589,-3.6622,9.498
5.1930,0.5248,-8.6942,-3.5651,9.411
5.2020,0.5995,-8.3336,-3.4971,9.057
5.2080,0.7453,-7.8864,-3.0589,8.492
5.2170,1.2623,-7.3903,-2.2772,7.836
5.2250,2.0496,-7.0068,-1.8927,7.542
5.2380,2.9693,-7.0143,-1.8420,7.836
5.2500,3.8699,-7.5036,-1.6206,8.597
5.2550,4.5770,-8.0519,-1.3451,9.359
5.2670,5.2759,-8.2204,-0.6887,9.792
5.2750,5.8222,-8.0430,0.0353,9.929
5.2890,6.0688,-7.7509,0.9324,9.888
5.2960,6.4532,-7.2680,1.8808,9.900
5.3230,7.1209,-6.7456,2.9922,10.255
5.3260,7.3455,-6.0708,4.0085,10.338
5.3280,5.0348,-5.5033,5.5164,9.277
5.3360,4.4633,-4.0664,3.3083,6.885
5.3460,5.9697,-3.3296,3.6422,7.745
5.3590,6.4539,-1.9671,4.6366,8.187
5.3720,6.2393,-0.5995,5.4607,8.313
5.3760,5.2329,0.8147,5.4995,7.635
5.3890,3.5896,1.8452,4.6181,6.133
5.3990,1.7737,2.3054,3.3322,4.423
5.4070,0.2691,2.4649,2.2110,3.322
5.4210,-0.8875,2.5313,1.4857,3.066
5.4290,-1.6932,2.5705,1.1840,3.298
5.4570,-2.1028,2.5347,0.9640,3.432
5.4590,-1.9498,2.3378,0.8125,3.151
5.4620,-1.6691,2.1678,0.8226,2.857
5.4710,-1.1041,1.9242,1.0658,2.461
5.4770,-0.1046,1.6077,1.6887,2.334
5.4900,0.6373,1.4211,2.0224,2.553
5.5050,0.9815,1.1909,2.0935,2.601
5.5160,1.5891,0.8393,1.9270,2.635
5.5190,2.1925,0.4676,1.7911,2.869
5.5270,2.4678,0.2633,1.7114,3.015
5.5390,2.6752,0.4570,1.4799,3.091
5.5570,2.7241,0.8677,1.0880,3.059
5.5580,2.9037,1.3553,0.8248,3.309
5.6170,3.0227,1.8693,0.4773,3.586
5.6180,3.1884,2.2701,0.5595,3.954
5.6200,3.5560,2.4608,0.9812,4.434
5.6200,3.8964,2.6584,1.2574,4.882
5.6210,4.2221,2.8298,1.8377,5.405
5.6230,4.5713,2.8566,2.5217,5.951
5.6270,5.0332,2.9644,3.3319,6.725
5.6380,5.4695,3.2664,4.0792,7.565
5.6460,5.6508,3.8673,4.7825,8.352
5.6560,5.7853,4.4008,5.1692,8.919
5.6680,6.2542,4.8566,5.5574,9.674
5.6750,6.6209,5.2800,5.8892,10.315
5.6900,6.9798,5.6439,6.0725,10.837
5.7070,7.2706,5.9191,6.2727,11.280
5.7640,7.6816,6.0518,6.5090,11.747
5.7660,8.2210,5.9752,7.1114,12.404
5.7690,8.6789,5.8595,7.4804,12.869
5.7700,9.0245,5.8327,7.8061,13.281
5.7710,9.2333,5.7607,7.8781,13.435
5.7720,9.2369,5.6953,7.5896,13.242
5.7730,8.9054,5.7697,7.0318,12.730
5.7760,8.7491,5.5750,6.3408,12.159
5.7910,8.8954,4.9659,5.3744,11.518
5.8040,8.9351,4.2091,4.5782,10.886
5.8060,8.8068,3.3716,3.9104,10.209
5.8160,8.7033,2.5140,3.6214,9.756
5.8390,8.7201,1.5707,3.5352,9.540
5.8450,8.5845,0.7838,3.6641,9.367
5.8820,8.5964,-0.0954,4.0307,9.495
5.8840,8.5194,-0.7746,4.3583,9.601
5.8850,8.0129,-1.0133,4.3424,9.170
5.8860,8.0427,-1.7110,4.6348,9.439
5.8930,7.9806,-2.3206,4.7197,9.558
5.8970,7.6366,-2.7477,4.6793,9.368
5.9080,6.7458,-2.7675,4.3498,8.490
5.9150,5.6926,-2.7454,3.8048,7.377
5.9250,4.8038,-3.0360,3.1568,6.501
5.9380,3.9420,-3.2605,2.6341,5.754
5.9450,3.0250,-3.5039,2.2467,5.145
5.9550,2.1607,-3.6890,1.9568,4.702
5.9680,1.2976,-3.9365,1.6965,4.479
5.9750,0.6359,-4.2685,1.5007,4.569
5.9860,0.0232,-4.5748,1.3027,4.757
5.9940,-0.3835,-4.9204,1.0445,5.045
6.0100,-0.7102,-5.3271,0.8501,5.441
6.0400,-0.9151,-5.8021,0.7566,5.922
6.0420,-1.2485,-6.2918,0.5405,6.437
6.0430,-1.4055,-6.6994,0.3715,6.855
6.0460,-1.6214,-7.0167,0.1599,7.203
6.0590,-1.7540,-7.5863,-0.1117,7.787
6.0670,-1.7471,-7.9396,-0.2557,8.134
6.0760,-1.8838,-8.2193,-0.5510,8.450
6.0890,-1.9630,-8.5484,-0.7077,8.799
6.0990,-2.0708,-8.8093,-0.8296,9.087
6.1080,-2.3881,-8.9808,-0.9943,9.346
6.1150,-2.8331,-8.9133,-0.9629,9.402
6.1250,-3.1338,-8.8703,-0.9424,9.455
6.1460,-3.2636,-8.8756,-0.9965,9.509
6.1950,-3.1473,-8.8864,-1.0408,9.485
6.1970,-3.0394,-9.0816,-1.0499,9.634
6.2000,-3.0791,-9.2095,-1.0399,9.766
6.2030,-3.0792,-9.1886,-0.9767,9.740
6.2050,-3.2503,-9.1772,-0.9899,9.786
6.2070,-3.3678,-9.1903,-1.0679,9.846
6.2090,-3.4468,-9.1416,-1.0925,9.831
6.2200,-3.5550,-9.2864,-1.1262,10.007
6.2280,-3.6883,-9.3225,-1.1198,10.088
6.2360,-3.9139,-9.3413,-1.0663,10.184
6.2520,-4.1030,-9.1942,-1.0412,10.122
6.2590,-4.3807,-9.1492,-1.0034,10.193
6.2680,-4.5467,-9.1819,-0.9670,10.292
6.2780,-4.5970,-9.3926,-0.9642,10.502
6.2870,-4.5134,-9.6412,-0.9547,10.688
6.2940,-4.4928,-9.9637,-1.0926,10.984
6.3100,-4.4739,-10.1525,-1.2206,11.161
6.3540,-4.5093,-10.2654,-1.2843,11.285
6.3560,-4.5983,-10.2093,-1.0505,11.246
6.3580,-4.7116,-9.8849,-0.8735,10.985
6.3590,-4.8288,-9.6802,-0.7668,10.845
6.3640,-4.4889,-9.3702,-0.7571,10.418
6.3960,-4.0452,-8.9701,-0.6445,9.861
6.3980,-3.4251,-8.8069,-0.6057,9.469
6.3990,-2.3495,-9.0080,-0.4626,9.321
6.4010,-1.2968,-9.2857,-0.0795,9.376
6.4520,-0.3268,-9.5202,0.2969,9.530
6.4530,0.5392,-9.8040,0.8564,9.856
6.4550,1.4100,-9.7857,1.3917,9.984
6.4560,2.4186,-9.4957,1.7902,9.961
6.4570,3.6497,-9.0960,2.0173,10.006
6.4600,4.8095,-8.4919,1.8656,9.936
6.4650,5.7464,-7.8128,1.6332,9.835
6.4770,6.1103,-6.7954,1.3949,9.244
6.4900,6.1429,-5.6505,1.2273,8.436
6.4970,5.8124,-4.4208,1.1916,7.399
6.5330,5.2445,-3.2232,1.1889,6.270
6.5350,4.6055,-2.1124,1.4499,5.270
6.5370,4.0130,-1.1567,1.7742,4.538
6.5380,3.4294,-0.3932,2.1356,4.059
6.5470,2.7670,0.3148,2.4599,3.716
6.5560,2.2012,0.7423,2.7534,3.602
6.5640,1.8379,1.2243,2.9086,3.652
6.5770,1.5715,1.5674,2.8818,3.638
6.6070,1.4929,1.7599,2.5021,3.404
6.6090,1.6358,1.7475,1.9884,3.112
6.6100,1.9033,1.7852,1.4981,3.009
6.6140,2.2270,1.8694,1.1126,3.113
6.6260,2.7013,1.6804,0.8038,3.281
6.6350,3.0314,1.4999,0.5712,3.430
6.6460,3.2258,1.3625,0.3411,3.518
6.6550,3.2941,1.2264,0.1434,3.518
6.6640,3.3995,1.1981,0.1650,3.608
6.6760,3.4244,1.1751,0.2436,3.629
6.6850,3.0728,1.3015,0.6022,3.391
6.6950,2.7649,1.5602,0.9630,3.318
6.7060,2.6761,1.9714,1.5065,3.649
6.7140,2.8090,2.1433,1.8883,4.006
6.7300,2.9903,2.2705,1.9801,4.245
6.7610,3.2724,2.3719,1.8820,4.458
6.7620,3.5209,2.5048,1.6814,4.637
6.7630,3.8262,2.7124,1.4670,4.914
6.7660,4.2605,2.8518,1.3185,5.294
6.7750,4.6738,3.0658,1.3290,5.745
6.7860,5.0838,3.3010,1.3227,6.204
6.7940,5.7104,3.4852,1.3427,6.823
6.8060,6.3279,3.7667,1.3655,7.490
6.8140,6.7768,4.1543,1.4733,8.084
6.8250,7.2890,4.4934,1.6187,8.714
6.8360,7.5474,4.8291,1.8301,9.145
6.8450,7.6451,5.3547,2.2527,9.602
6.8590,7.8104,5.8611,2.5809,10.100
6.8640,8.0804,6.1496,2.9774,10.582
6.8870,8.5971,6.0832,3.1956,11.006
6.8900,8.8710,5.9379,3.5099,11.237
6.8940,8.8170,5.8895,3.9771,11.324
6.9050,8.7071,5.8179,4.4676,11.385
6.9150,8.6067,5.4129,5.0567,11.355
6.9240,8.3697,4.8432,5.3982,11.075
6.9350,7.8767,4.4121,5.5855,10.616
6.9450,7.0625,4.1457,5.6007,9.921
6.9570,6.3844,3.8740,5.3919,9.211
6.9640,6.1802,3.5903,5.0125,8.730
6.9760,6.4720,3.0324,4.7032,8.556
6.9870,6.9246,2.3396,4.3195,8.490
6.9940,7.4017,1.7836,4.0211,8.610
7.0060,8.0646,1.2348,3.9679,9.072
7.0500,8.6497,0.6804,3.8563,9.495
7.0520,9.3125,0.1189,3.7527,10.041
7.0530,9.6385,-0.4997,3.7798,10.365
7.0550,9.3645,-0.6979,3.6796,10.086
7.0570,9.2755,-1.2738,4.0531,10.202
7.0660,9.3797,-1.9206,4.2168,10.462
7.0770,9.3646,-2.5167,4.2790,10.599
7.0850,9.1631,-2.9742,4.0693,10.458
7.0940,8.6784,-3.3638,3.9165,10.098
7.1080,7.9564,-3.6484,3.6994,9.503
7.1140,7.0430,-3.7717,3.4203,8.691
7.1260,5.7946,-3.7389,2.9815,7.513
7.1420,4.6940,-3.8120,2.7220,6.631
7.1480,3.7788,-4.0187,2.5290,6.068
7.1830,2.9408,-4.2834,2.4600,5.749
7.1840,2.1733,-4.4757,2.4168,5.531
7.1860,1.3933,-4.6184,2.2278,5.314
7.1900,0.8848,-4.9148,2.0048,5.381
7.1950,0.5211,-5.3831,1.7896,5.697
7.2090,0.2979,-5.7962,1.6161,6.025
7.2180,0.1106,-6.2788,1.4002,6.434
7.2250,-0.1645,-6.6982,1.2063,6.808
7.2390,-0.3475,-7.2240,0.8618,7.284
7.2470,-0.5391,-7.7611,0.5718,7.801
7.2590,-0.7062,-8.3931,0.3675,8.431
7.2650,-0.9684,-8.8538,0.2784,8.911
7.2770,-1.2815,-9.2926,0.2257,9.383
7.3240,-1.6064,-9.6445,0.1863,9.779
7.3260,-1.9417,-9.9071,0.2017,10.098
7.3270,-2.3207,-10.1252,0.1228,10.389
7.3290,-2.6911,-10.3102,0.0411,10.656
7.3310,-3.0112,-10.3649,-0.0170,10.793
7.3530,-3.3921,-10.3602,-0.0456,10.901
7.4050,-3.5624,-10.3461,-0.0311,10.942
7.4110,-3.8640,-10.4131,-0.1014,11.107
7.4130,-4.1023,-10.2931,-0.1648,11.082
7.4210,-4.4511,-10.1648,-0.2500,11.099
7.4250,-4.6736,-9.9684,-0.4409,11.018
7.4290,-4.9153,-9.8404,-0.4465,11.009
7.4310,-5.0103,-9.7720,-0.4169,10.990
7.4320,-5.1853,-9.6592,-0.4548,10.972
7.4570,-5.3591,-9.4864,-0.4415,10.904
7.4580,-5.6962,-9.3869,-0.2652,10.983
7.5320,-5.9241,-9.3376,-0.1475,11.059
7.5400,-6.2786,-9.2233,-0.0742,11.158
7.5410,-6.6598,-9.1388,0.1621,11.309
7.5420,-7.0295,-9.1313,0.5238,11.536
7.5430,-7.2691,-9.1263,0.8332,11.697
7.5440,-7.4891,-9.1170,1.0275,11.843
7.5450,-7.4462,-9.0183,1.1364,11.750
7.5460,-7.2560,-9.1284,1.4250,11.748
7.5480,-6.7084,-9.2337,1.8514,11.562
7.5570,-5.8448,-9.0965,2.0702,11.009
7.5580,-4.8120,-9.0333,1.8889,10.408
7.6370,-3.7364,-8.9882,1.3754,9.831
7.6390,-2.8338,-8.8856,0.6962,9.352
7.6400,-2.1635,-8.6543,0.0894,8.921
7.6420,-1.7013,-8.5513,-0.2297,8.722
7.6430,-1.2077,-8.7014,-0.3638,8.792
7.6460,-0.5600,-9.0695,-0.2494,9.090
7.6480,0.1945,-9.6631,0.2587,9.669
7.6500,0.8040,-10.2570,0.6525,10.309
7.6510,1.4549,-10.5548,1.1680,10.718
7.6530,2.4536,-10.3806,1.8077,10.819
7.6740,3.8433,-10.1002,2.3324,11.056
7.6760,5.6036,-9.5509,2.7801,11.417
7.7270,7.1088,-8.6287,2.9632,11.566
7.7290,8.2197,-7.5396,2.8390,11.510
7.7300,8.6757,-6.1637,2.4487,10.920
7.7310,8.4238,-4.6850,1.9581,9.836
7.7320,7.6206,-3.1017,1.4275,8.351
7.7720,6.6457,-1.8193,1.1036,6.978
7.7740,5.6121,-0.8575,0.9680,5.759
7.7750,4.5375,-0.0842,1.0496,4.658
7.7760,3.5069,0.6230,1.3259,3.801
7.7770,2.6308,1.2788,1.7232,3.395
7.7780,1.7404,1.8309,1.9803,3.210
7.7950,1.0129,2.1631,2.0009,3.116
7.7990,0.6045,2.3454,1.9300,3.097
7.8370,0.5824,2.3281,1.8096,3.006
7.8400,0.7642,2.2704,1.6580,2.913
7.8410,1.1101,2.3017,1.3547,2.892
7.8430,1.8342,2.2159,1.0708,3.069
7.8480,2.4610,1.9838,0.6883,3.235
7.8590,3.0746,1.9147,0.5097,3.658
7.8660,3.3329,1.9928,0.2712,3.893
7.8800,3.2259,2.0983,-0.1150,3.850
7.9250,3.3212,2.0338,-0.3858,3.914
7.9280,3.2182,2.0658,-0.6110,3.873
7.9290,3.2161,2.1156,-0.7087,3.914
7.9300,3.3219,2.2286,-0.6986,4.061
7.9330,3.4498,2.3715,-0.4214,4.207
7.9460,3.5518,2.5542,-0.0229,4.375
7.9500,3.8462,2.7794,0.5601,4.778
7.9570,4.1454,2.9070,1.1358,5.189
7.9650,4.5252,3.0885,1.7537,5.753
7.9770,4.8899,3.2227,2.3382,6.306
7.9850,5.2341,3.4089,2.9147,6.893
7.9970,5.4811,3.4215,3.4310,7.316
8.0090,5.5987,3.6444,3.7967,7.684
8.0150,5.6234,4.0939,4.0999,8.074
8.0280,5.8580,4.6230,4.3350,8.630
8.0410,6.3253,5.2355,4.6028,9.413
8.0970,6.5562,5.9240,4.7272,10.021
8.0990,6.7996,6.7049,4.6991,10.643
8.1000,7.4194,7.1974,4.7477,11.375
8.1030,8.2337,7.3612,4.6967,12.002
8.1050,8.7985,7.3308,4.7536,12.400
8.1060,9.1095,7.1001,4.6578,12.453
8.1110,9.0238,6.6663,4.4427,12.067
8.1150,8.7805,5.8901,4.4108,11.456
8.1260,8.4526,4.9949,4.4057,10.761
8.1390,7.9555,4.2897,4.4161,10.060
8.1460,7.4249,3.8782,4.3921,9.458
8.1590,6.8877,3.5824,4.1750,8.815
8.1640,6.6345,3.3606,4.0483,8.468
8.1800,6.7325,2.9880,3.9166,8.342
8.2230,7.1504,2.4103,3.9975,8.539
8.2250,7.5693,1.7549,4.0282,8.752
8.2270,8.0415,1.0788,3.9015,9.003
8.2290,8.3195,0.4023,4.0249,9.251
8.2320,8.4939,-0.4634,4.1739,9.475
8.2380,8.4238,-1.0297,4.3044,9.516
8.2450,8.1103,-1.5087,4.2990,9.302
8.2560,7.8470,-2.0788,4.1679,9.125
8.2660,7.4504,-2.5227,4.0115,8.830
8.2750,6.8258,-2.7247,3.9381,8.338
8.2850,5.9418,-2.7228,3.8957,7.609
8.2950,5.1044,-2.7310,3.9014,6.981
8.3070,4.3713,-2.6238,3.8305,6.377
8.3150,3.7021,-2.5277,3.6173,5.760
8.3250,2.9962,-2.4148,3.2253,5.021
8.3340,2.3008,-2.2811,2.7961,4.280
8.3620,1.6920,-2.3953,2.3292,3.745
8.3650,1.1876,-2.5435,1.9536,3.420
8.3670,0.7745,-2.7549,1.5257,3.243
8.3780,0.4578,-3.1003,1.2060,3.358
8.3880,0.3478,-3.4838,0.8901,3.613
8.3940,0.3108,-3.9564,0.6840,4.027
8.4060,0.0984,-4.4800,0.5088,4.510
8.4150,-0.1877,-4.9619,0.3448,4.977
8.4250,-0.3455,-5.4147,0.2292,5.431
8.4350,-0.6640,-5.8413,0.0807,5.879
8.4450,-0.8642,-6.2719,0.0761,6.332
8.4570,-0.9389,-6.7891,0.0078,6.854
8.4650,-0.9322,-7.2821,0.0971,7.342
8.4970,-0.9772,-7.7624,0.0965,7.824
8.4980,-1.1321,-8.1072,0.0425,8.186
8.4990,-1.2467,-8.5012,-0.1071,8.593
8.5050,-1.5082,-8.9079,-0.2704,9.039
8.5150,-1.6964,-9.1687,-0.4146,9.334
8.5260,-1.9174,-9.3499,-0.4632,9.556
8.5340,-2.0730,-9.3954,-0.4230,9.631
8.5450,-2.1683,-9.5049,-0.4265,9.758
8.5550,-2.2979,-9.6589,-0.4726,9.940
8.5640,-2.5936,-9.6210,-0.7065,9.989
8.5750,-2.9024,-9.5972,-0.7660,10.056
8.5840,-3.2483,-9.5652,-0.8843,10.140
8.6000,-3.5224,-9.5590,-0.9321,10.230
8.6040,-3.8112,-9.5526,-0.9273,10.327
8.6150,-4.1967,-9.4409,-0.8296,10.365
8.6290,-4.6284,-9.3821,-0.6974,10.485
8.6450,-4.9919,-9.3007,-0.4655,10.566
8.6480,-5.4516,-9.2042,-0.3273,10.703
8.6570,-5.8691,-9.2122,-0.2207,10.925
8.6650,-6.2415,-9.2214,-0.0062,11.135
8.6780,-6.5596,-9.2076,0.2172,11.307
8.6860,-6.8105,-9.1826,0.2331,11.435
8.6950,-6.9145,-9.2593,0.2228,11.558
8.7060,-6.6572,-9.4494,0.0444,11.559
8.7140,-6.2927,-9.7662,-0.0777,11.618
8.7250,-5.7140,-10.1026,-0.2008,11.608
8.7340,-5.1663,-10.2403,-0.2293,11.472
8.7450,-4.7699,-10.2486,-0.2890,11.308
8.7820,-4.5844,-10.2165,-0.3452,11.203
8.7870,-4.4331,-10.2613,-0.4080,11.185
8.7890,-3.9359,-10.4969,-0.3694,11.217
8.7900,-3.0015,-10.6256,-0.0666,11.042
8.7950,-1.8639,-10.8362,0.3895,11.002
8.8060,-0.4703,-11.0209,0.7174,11.054
8.8140,0.8657,-11.2793,0.9549,11.353
8.8250,2.3838,-11.5769,1.2894,11.890
8.8350,3.9622,-11.8067,1.5720,12.553
8.8450,5.4569,-11.7853,1.7309,13.102
8.8560,7.0502,-11.3777,1.7358,13.497
8.8640,7.7502,-10.0942,1.6358,12.831
8.8780,8.1031,-8.8133,1.5859,12.077
8.8840,8.9916,-7.6301,1.6537,11.908
8.9120,9.0064,-5.7979,1.5474,10.822
8.9150,8.3215,-3.6607,1.8097,9.269
8.9490,7.2279,-1.7727,1.9307,7.689
8.9500,6.2910,-0.3334,2.1776,6.666
8.9510,5.3408,0.7454,2.4380,5.918
8.9530,4.3387,1.5902,2.7161,5.360
8.9570,3.3040,2.3867,2.9383,5.025
8.9650,2.3982,2.8126,3.0579,4.797
8.9760,1.6746,2.9521,2.8530,4.434
8.9840,1.0780,2.9628,2.3375,3.925
8.9950,0.7961,2.8795,1.7205,3.448
9.0070,0.8235,2.6513,1.0664,2.974
9.0140,1.0559,2.3653,0.6493,2.670
9.0550,1.3506,2.1107,0.1652,2.511
9.0570,1.7437,1.7674,-0.1634,2.488
9.0570,2.0765,1.5363,-0.4264,2.618
9.0580,2.4605,1.1656,-0.6239,2.793
9.0640,2.6268,0.9753,-0.8092,2.916
9.0760,2.6288,0.9078,-0.7261,2.874
9.0870,2.4569,1.0878,-0.6723,2.770
9.0950,2.2330,1.2682,-0.6618,2.652
9.1050,2.0328,1.4006,-0.4800,2.515
9.1140,1.9753,1.5408,-0.1200,2.508
9.1250,2.2792,1.7765,0.4636,2.927
9.1340,2.6426,2.0297,0.9790,3.473
9.1440,3.1569,2.0599,1.3649,4.009
9.1560,4.0334,2.1361,1.6584,4.856
9.1640,4.8009,2.2557,1.8716,5.625
9.1890,5.2792,2.3486,2.0491,6.131
9.1910,5.7386,2.5508,2.3404,6.702
9.1940,6.1674,2.8783,2.7505,7.341
9.2050,6.5662,3.2805,3.1962,8.006
9.2150,6.8973,3.8827,3.5907,8.691
9.2240,7.1037,4.4700,3.9677,9.284
9.2350,7.4304,5.1362,4.1725,9.950
9.2450,7.7208,5.8080,4.2972,10.574
9.2570,7.9889,6.4689,4.4037,11.183
9.2640,8.4142,6.9128,4.6549,11.843
9.2750,8.7881,7.0262,4.7784,12.224
9.2840,9.2564,6.7321,4.7930,12.409
9.2990,9.5375,6.3885,4.9916,12.518
9.3340,9.6967,6.0208,5.2640,12.569
9.3360,9.5744,5.5876,5.3903,12.327
9.3370,9.1480,4.9628,5.3037,11.681
9.3380,8.4448,4.3452,4.8562,10.667
9.3440,7.6060,4.0629,4.0263,9.517
9.3590,6.9874,3.6296,3.3583,8.560
9.3660,7.0156,2.9595,2.9501,8.166
9.3750,7.3837,2.1240,2.9671,8.236
9.3850,7.7263,1.4524,3.3021,8.527
9.3950,8.0520,0.8139,3.5465,8.836
9.4060,8.3389,0.2556,3.7720,9.156
9.4150,8.7052,-0.3240,3.8440,9.522
9.4250,8.8874,-0.8400,3.7303,9.675
9.4350,8.9341,-1.3916,3.4823,9.689
9.4510,8.7829,-1.7505,3.4692,9.604
9.4550,8.5235,-2.1871,3.3773,9.425
9.4640,8.1345,-2.3654,3.3303,9.103
9.4850,7.5321,-2.5051,3.3066,8.599
9.4870,6.7766,-2.5625,3.1382,7.895
9.4940,5.9968,-2.4772,3.1569,7.216
9.5050,5.2352,-2.4613,3.1533,6.588
9.5140,4.4371,-2.5093,3.1348,5.984
9.5240,3.7874,-2.6439,3.1049,5.565
9.5350,3.1952,-2.7620,2.8992,5.123
9.5460,2.6345,-3.0104,2.6851,4.818
9.5580,2.1335,-3.3449,2.3881,4.631
9.5650,1.7270,-3.6916,2.0699,4.571
9.6010,1.2857,-4.0541,1.6657,4.568
9.6030,0.9915,-4.5668,1.3265,4.858
9.6040,0.6911,-5.0424,1.0529,5.197
9.6060,0.4448,-5.5664,0.8557,5.649
9.6140,0.1848,-6.1469,0.6572,6.185
9.6250,-0.0431,-6.7125,0.4552,6.728
9.6340,-0.3762,-7.1311,0.3385,7.149
9.6440,-0.5180,-7.7103,0.3423,7.735
9.6550,-0.8265,-8.2150,0.3174,8.263
9.6650,-1.1617,-8.6715,0.4236,8.759
9.6750,-1.4935,-9.0151,0.5312,9.153
9.6840,-1.8462,-9.2719,0.6093,9.474
9.6950,-2.1817,-9.4132,0.5857,9.680
9.7130,-2.4670,-9.4518,0.4305,9.778
9.7520,-2.8609,-9.5735,0.3675,9.999
9.7540,-3.0764,-9.6686,0.2490,10.149
9.7550,-3.2678,-9.7393,0.2404,10.276
9.7560,-3.4078,-9.8748,0.2038,10.448
9.7570,-3.6074,-9.9729,0.0858,10.606
9.7640,-3.7727,-10.1112,0.1324,10.793
9.7770,-3.9379,-10.0405,0.0744,10.785
9.7840,-4.2507,-9.8959,0.0316,10.770
9.8150,-4.4995,-9.6695,0.0767,10.665
9.8170,-4.7834,-9.6149,0.0368,10.739
9.8460,-5.0437,-9.4750,-0.1693,10.735
9.8480,-5.3572,-9.3353,-0.3344,10.768
9.8490,-5.6397,-9.0413,-0.3619,10.662
9.8500,-5.9627,-8.8503,-0.3699,10.678
9.8570,-6.1792,-8.7747,-0.2422,10.735
9.8650,-6.3610,-8.7720,-0.0388,10.836
9.8830,-6.3795,-8.8689,0.0040,10.925
9.9160,-6.4024,-8.9642,0.1818,11.017
9.9180,-6.4064,-9.2514,0.1996,11.255
9.9190,-6.4150,-9.5808,0.1118,11.531
9.9210,-6.2095,-9.7837,-0.0348,11.588
9.9300,-6.1557,-9.9778,-0.1585,11.725
9.9350,-6.0295,-9.9311,-0.3355,11.623
9.9460,-5.6868,-9.8987,-0.4235,11.424
9.9560,-5.1004,-9.9094,-0.4834,11.155
9.9650,-4.8281,-10.0718,-0.2981,11.173
9.9760,-4.3426,-10.2683,-0.1535,11.150
9.9840,-3.7455,-10.4664,0.1905,11.118
10.0080,-3.0445,-10.8200,0.3946,11.247
10.0100,-2.0786,-11.0173,0.8533,11.244
10.0160,-0.7177,-11.3258,1.2508,11.417
10.0270,0.9009,-11.7607,1.6067,11.904
10.0340,2.4047,-12.2001,1.7977,12.564
10.0650,4.0286,-12.4456,1.8149,13.207
10.0670,5.5228,-12.5489,1.7671,13.824
10.0680,6.6176,-12.2946,1.8040,14.079
10.0780,7.3877,-11.4635,1.8754,13.766
10.0850,7.2256,-9.7643,1.9562,12.304
10.0960,7.5061,-8.5325,2.5025,11.636
10.1270,7.5479,-6.9821,2.9832,10.706
10.1290,7.0243,-5.0296,3.3168,9.254
10.1300,6.4955,-3.2062,3.7980,8.179
10.1340,5.9980,-1.7537,4.2018,7.530
10.1450,5.4255,-0.5559,4.7163,7.210
10.1590,4.8211,0.6274,5.0898,7.039
10.1680,4.3140,1.6378,5.3371,7.055
10.1990,3.9977,2.4235,5.2271,7.013
10.2010,3.7761,2.8777,4.7429,6.711
10.2020,3.5322,3.0701,3.8839,6.082
10.2120,3.3993,3.1438,2.9001,5.463
10.2170,3.2982,3.0379,1.9948,4.908
10.2250,3.4084,2.8549,1.1993,4.605
10.2340,3.5094,2.5017,0.6243,4.355
10.2450,3.6918,2.1085,0.1278,4.253
10.2570,3.6083,1.8051,-0.2958,4.045
10.2640,3.3970,1.5278,-0.6025,3.773
10.2930,3.1000,1.4038,-0.8669,3.512
10.2960,2.9389,1.4859,-0.8373,3.398
10.2970,2.8801,1.7502,-0.7162,3.445
10.3080,2.8282,1.9057,-0.5370,3.452
10.3140,2.8957,2.1035,-0.2828,3.590
10.3250,3.1396,2.1706,-0.0203,3.817
10.3340,3.6122,2.2302,0.4831,4.273
10.3440,4.2008,2.3832,1.1581,4.967
10.3550,4.7392,2.5972,1.6114,5.639
10.3640,5.1143,2.7109,2.1242,6.166
10.3740,5.5169,2.7573,2.3821,6.612
10.3840,5.8855,2.6649,2.4358,6.905
10.3970,6.1704,2.6412,2.5808,7.191
10.4510,6.3041,2.9255,2.6756,7.447
10.4540,6.5504,3.4487,2.8511,7.933
10.4550,6.7684,3.9225,2.8679,8.332
10.4570,7.3100,4.5180,2.9636,9.090
10.4580,8.1510,5.0898,3.1885,10.125
10.4580,9.3195,5.5206,3.5187,11.389
10.4650,10.5385,5.6924,3.9085,12.599
10.4750,11.4534,5.6308,4.2707,13.458
10.4840,11.9565,5.6837,4.7383,14.061
10.4950,12.4861,5.2554,5.0866,14.471
10.5060,12.5669,4.5391,5.3473,14.392
10.5150,12.1395,3.8538,5.5622,13.898
10.5250,11.1089,3.4244,5.6236,12.913
10.5340,9.7082,3.1117,5.2150,11.451
10.5530,8.5124,2.9440,4.9055,10.256
10.5630,7.5253,2.6720,4.5274,9.180
10.5680,7.2787,2.2926,4.3826,8.800
10.5890,7.7957,1.5559,4.2345,9.007
10.5910,8.4889,0.6516,4.1239,9.460
10.5960,8.8484,-0.0725,3.9429,9.687
10.6070,9.0878,-0.6366,3.8253,9.881
10.6150,8.9991,-1.3249,3.5964,9.781
10.6250,8.8358,-1.8910,3.5264,9.700
10.6350,8.4495,-2.3058,3.3130,9.364
10.6460,7.9620,-2.6527,3.2297,8.992
10.6560,7.6737,-3.0773,3.1434,8.845
10.6640,7.2834,-3.4460,3.1185,8.640
10.6750,6.6697,-3.6472,2.7239,8.075
10.6840,5.8769,-3.7761,2.5864,7.449
10.7060,5.0001,-3.8629,2.6691,6.859
10.7130,4.1454,-4.0341,2.7930,6.423
10.7170,3.4444,-4.2809,2.8232,6.177
10.7370,2.7966,-4.4921,2.8995,6.034
10.7410,1.9609,-4.7266,2.8428,5.854
10.7450,1.2571,-4.9210,2.6719,5.739
10.7570,0.6194,-5.1146,2.6141,5.777
10.7650,0.1082,-5.2255,2.3490,5.730
10.7760,-0.3368,-5.4626,1.9911,5.824
10.7860,-0.6030,-5.7268,1.5824,5.972
10.7950,-0.8798,-6.0734,1.0509,6.226
10.8120,-1.1434,-6.3548,0.5732,6.482
10.8580,-1.3715,-6.6735,0.2959,6.819
10.8600,-1.6973,-6.9673,0.0399,7.171
10.8610,-2.0482,-7.2486,-0.0960,7.533
10.8620,-2.3539,-7.5516,-0.1936,7.912
10.8620,-2.5913,-7.8957,-0.2806,8.315
10.8660,-2.7329,-8.2807,-0.3110,8.726
10.8770,-2.9300,-8.5809,-0.2677,9.071
10.8850,-3.3174,-9.0063,-0.3386,9.604
10.8940,-3.7018,-9.2094,-0.2632,9.929
10.9080,-4.1844,-9.2326,-0.1539,10.138
10.9150,-4.5322,-9.1756,-0.0827,10.234
10.9270,-4.8144,-9.1126,-0.0267,10.306
10.9340,-4.9566,-9.1157,-0.0243,10.376
10.9450,-4.9854,-9.0916,-0.1211,10.369
10.9610,-5.0397,-9.1736,-0.3522,10.473
11.0080,-5.0932,-9.1641,-0.5107,10.497
11.0090,-5.0717,-9.1275,-0.6170,10.460
11.0110,-4.9700,-9.1679,-0.6423,10.448
11.0110,-4.9475,-9.1692,-0.6045,10.436
11.0120,-4.9762,-9.1570,-0.5248,10.435
11.0170,-4.9283,-9.1287,-0.3411,10.380
11.0260,-5.1431,-9.1127,-0.1692,10.465
11.0340,-5.3440,-8.9722,0.1278,10.444
11.0440,-5.6173,-8.8324,0.3933,10.475
11.0570,-5.6802,-8.7696,0.6333,10.468
11.0640,-5.5089,-8.9602,0.8818,10.555
11.0770,-5.4578,-9.1356,1.0869,10.697
11.0840,-5.4312,-9.1920,1.3959,10.768
11.0970,-5.3377,-9.2110,1.5556,10.759
11.1450,-4.9713,-9.3632,1.5794,10.718
11.1470,-4.3273,-9.3543,1.3809,10.399
11.1480,-3.7687,-9.2450,1.1552,10.050
11.1490,-3.6631,-8.9170,0.8946,9.682
11.1500,-3.5767,-8.5655,0.5552,9.299
11.1590,-3.5253,-8.4270,0.0301,9.135
11.1660,-3.3549,-8.4943,-0.3627,9.140
11.1760,-2.7367,-8.8190,-0.7734,9.266
11.1860,-1.8376,-9.3318,-0.9163,9.555
11.1950,-1.0746,-9.7138,-0.9796,9.822
11.2060,-0.1843,-10.3400,-1.0893,10.399
11.2150,0.6994,-10.9880,-1.0495,11.060
11.2300,1.7566,-11.3701,-0.7878,11.532
11.2770,2.7372,-11.4123,-0.3940,11.743
11.2800,3.5207,-11.2390,0.1171,11.778
11.2810,4.4157,-10.9225,0.4896,11.792
11.2810,5.2319,-10.3469,0.7963,11.622
11.2820,5.7384,-9.3955,1.2486,11.080
11.2870,5.9489,-8.2509,1.6987,10.313
11.3110,6.2269,-6.9818,1.9682,9.560
11.3130,6.3440,-5.6100,2.1683,8.742
11.3450,6.2781,-4.1179,2.5055,7.915
11.3470,5.9804,-2.7790,2.9903,7.241
11.3480,5.4056,-1.2900,3.3663,6.497
11.3490,4.7753,-0.0289,3.7085,6.046
11.3570,4.0257,1.1168,3.9007,5.716
11.3650,3.3398,2.0018,3.9057,5.515
11.3760,2.9917,2.6452,3.7432,5.473
11.3860,2.7543,3.1492,3.5344,5.477
11.4080,2.8539,3.5807,3.0705,5.513
11.4100,2.9568,3.7277,2.5607,5.403
11.4140,2.9697,3.8167,1.7876,5.156
11.4320,3.0046,3.8050,1.1735,4.988
11.4400,3.1574,3.6818,0.7135,4.902
11.4460,3.1966,3.4578,0.3618,4.723
11.4570,3.2511,3.1485,0.0385,4.526
11.4640,3.3451,2.6891,-0.2261,4.298
11.4750,3.3530,2.2173,-0.4520,4.045
11.4830,3.2291,1.8074,-0.5583,3.742
11.4940,3.0071,1.3726,-0.5361,3.349
11.5100,2.7998,1.0632,-0.4068,3.022
11.5460,2.6032,0.8353,-0.2254,2.743
11.5480,2.5855,0.6685,0.0832,2.672
11.5490,2.6704,0.6818,0.5164,2.804
11.5490,3.0159,0.7311,0.8846,3.227
11.5690,3.5297,0.7057,1.0438,3.748
11.5730,4.0039,0.8294,1.2904,4.288
11.5750,4.3526,1.0926,1.5332,4.742
11.5840,4.4935,1.4785,1.8112,5.065
11.5950,4.5778,1.6124,1.8884,5.208
11.6030,4.7081,1.9571,2.0790,5.506
11.6140,4.8273,2.5230,2.3283,5.924
11.6250,5.1263,3.0362,2.7034,6.543
11.6330,5.4919,3.6703,3.2555,7.364
11.6530,6.0750,4.2078,3.8506,8.333
11.6560,7.1082,4.5629,4.3701,9.510
11.6650,8.3064,4.8303,4.8981,10.785
11.6850,9.0808,5.1826,5.2812,11.714
11.6870,9.7046,5.6066,5.6174,12.537
11.6990,10.2482,5.7724,5.8654,13.143
11.7070,10.6153,5.8678,5.9516,13.511
11.7150,10.7141,6.0305,5.9500,13.659
11.7270,10.3460,6.1500,5.7614,13.344
11.7340,9.8430,6.2747,5.5101,12.908
11.7450,9.4656,6.0794,5.1373,12.367
11.7540,9.7079,5.5537,4.4068,12.021
11.7650,10.6692,4.6727,3.7272,12.229
11.7770,11.2971,3.6596,3.0479,12.260
11.7850,11.4767,2.4967,2.5023,12.009
11.8230,11.6126,1.4448,2.0716,11.884
11.8250,11.5190,0.3656,1.5770,11.632
11.8270,11.2957,-0.7316,1.3860,11.404
11.8280,10.8361,-1.7231,1.3542,11.056
11.8340,10.2787,-2.3980,1.4299,10.651
11.8450,9.5241,-2.9414,1.7268,10.116
11.8540,8.7671,-3.3324,2.0537,9.601
11.8640,7.8895,-3.6007,2.4128,9.002
11.8770,7.0402,-3.9302,2.7334,8.514
11.8840,6.1151,-4.1793,2.9773,7.983
11.8970,5.1225,-4.4029,3.2126,7.480
11.9120,4.1564,-4.4619,3.2341,6.902
11.9150,3.2692,-4.4369,3.0567,6.302
11.9640,2.3430,-4.5352,2.9846,5.913
11.9670,1.4014,-4.6132,2.7237,5.537
11.9670,0.5424,-4.7158,2.7149,5.468
11.9680,-0.1033,-4.6801,2.5394,5.326
11.9690,-0.6457,-4.7015,2.1253,5.200
11.9790,-1.0239,-4.8328,1.7954,5.256
11.9850,-1.0974,-5.0147,1.2703,5.288
11.9940,-1.1903,-5.2976,0.7128,5.476
12.0050,-1.3704,-5.5500,0.3924,5.730
12.0150,-1.5013,-5.8264,0.0687,6.017
12.0260,-1.6642,-6.1265,-0.2405,6.353
12.0340,-1.8473,-6.4647,-0.3745,6.734
12.0450,-2.1215,-6.8548,-0.4414,7.189
12.0540,-2.4003,-7.1861,-0.5520,7.596
12.0700,-2.5956,-7.4716,-0.6318,7.935
12.0780,-2.8423,-7.7583,-0.6416,8.287
12.1110,-3.0586,-8.0697,-0.6529,8.655
12.1130,-3.2513,-8.2955,-0.6052,8.930
12.1140,-3.5203,-8.4853,-0.6611,9.210
12.1170,-3.7657,-8.6509,-0.5372,9.450
12.1260,-4.0815,-8.7275,-0.4569,9.646
12.1350,-4.0665,-8.8290,-0.3101,9.725
12.1440,-4.0331,-8.9814,-0.2305,9.848
12.1560,-4.0877,-9.0448,-0.1685,9.927
12.1640,-4.0827,-9.0957,-0.1340,9.971
12.1740,-3.9666,-9.0758,-0.1714,9.906
12.1840,-3.8502,-9.1902,-0.2094,9.966
12.1940,-3.9217,-9.1513,-0.2259,9.959
12.2360,-3.9901,-9.1607,-0.2882,9.996
12.2380,-4.1804,-9.0638,-0.1299,9.982
12.2400,-4.4316,-8.9745,-0.0912,10.009
12.2410,-4.4712,-8.8810,-0.1047,9.944
12.2440,-4.6121,-9.0581,0.0007,10.165
12.2540,-4.8737,-9.3060,-0.0476,10.505
12.2640,-5.2667,-9.5067,0.0196,10.868
12.2750,-5.6585,-9.7030,0.1135,11.233
12.2840,-5.9923,-9.8909,0.0927,11.565
12.2960,-6.3463,-9.9881,0.2946,11.837
12.3040,-6.7258,-10.0381,0.2735,12.086
12.3570,-6.9735,-9.9695,0.2406,12.169
12.3580,-7.0038,-9.9120,0.0433,12.137
12.3600,-6.5814,-9.9390,-0.0212,11.921
12.3610,-5.9156,-9.9670,-0.0573,11.590
12.3620,-5.0473,-10.0041,-0.0785,11.206
12.3650,-4.1417,-9.9846,-0.0740,10.810
12.3810,-3.1201,-9.9408,-0.0502,10.419
12.3870,-2.1611,-9.9793,0.1025,10.211
12.4290,-1.2546,-10.1488,0.1604,10.227
12.4310,-0.2742,-10.3497,0.2659,10.357
12.4330,0.7676,-10.5187,0.4565,10.557
12.4340,1.7825,-10.5169,0.5732,10.682
12.4350,2.8637,-10.5334,0.6345,10.934
12.4700,4.0437,-10.4381,0.7160,11.217
12.4720,4.7378,-9.9206,0.6023,11.010
12.4730,5.0287,-8.9090,0.3896,10.238
12.5050,5.1108,-7.7472,0.1450,9.282
12.5070,4.8650,-6.4430,0.1522,8.075
12.5080,4.6773,-5.0833,0.2566,6.913
12.5090,4.5864,-3.8309,0.5894,6.005
12.5400,4.3412,-2.6231,1.0454,5.179
12.5420,4.1552,-1.5525,1.5394,4.695
12.5430,3.8369,-0.5435,2.1765,4.445
12.5450,3.4300,0.3501,2.7590,4.416
12.5540,3.1265,1.1538,3.4024,4.763
12.5660,2.7244,1.7535,3.7364,4.945
12.5960,2.3662,2.1043,3.7823,4.933
12.5980,2.1108,2.2320,3.3347,4.534
12.5990,2.0226,2.1417,2.5889,3.922
12.6030,2.0586,1.9378,1.7873,3.345
12.6150,2.1776,1.7125,1.3020,3.061
12.6290,2.5343,1.5282,0.9884,3.120
12.6360,2.9589,1.1700,0.5260,3.225
12.6630,3.3272,0.7924,0.2599,3.430
12.6650,3.6496,0.4369,-0.1169,3.678
12.6660,3.8195,0.1608,-0.4388,3.848
12.6770,3.9202,0.0391,-0.5899,3.965
12.6850,3.7193,-0.0224,-0.6381,3.774
12.6940,3.4910,0.1243,-0.5292,3.533
12.7060,3.4746,0.2431,-0.1638,3.487
12.7150,3.6635,0.3815,0.3886,3.704
12.7240,3.8451,0.5361,0.9550,3.998
12.7340,4.0500,0.7075,1.4391,4.356
12.7460,4.5517,0.7285,1.8613,4.971
12.7540,5.2406,0.8133,2.1270,5.714
12.7730,6.1234,0.9733,2.2043,6.580
12.7780,6.7229,1.2055,2.1891,7.172
12.7830,6.9438,1.6344,2.1653,7.455
12.8160,6.9679,2.3080,2.0667,7.626
12.8180,7.0331,2.9534,1.8432,7.848
12.8190,7.0829,3.5613,1.8172,8.133
12.8300,7.1598,4.2069,1.8264,8.503
12.8350,7.4443,4.7914,2.2611,9.137
12.8440,7.8502,5.1570,2.9125,9.834
12.8550,8.3664,5.2746,3.5713,10.515
12.8640,8.6106,5.5234,4.1836,11.052
12.8770,8.9058,5.8096,4.6726,11.615
12.8850,9.3583,5.8296,5.3878,12.272
12.8970,9.6878,5.6904,5.8427,12.664
12.9480,9.7547,5.3961,6.0579,12.687
12.9510,9.2786,5.3291,6.0623,12.298
12.9520,8.5408,5.2527,5.5506,11.461
12.9530,8.2496,4.8751,4.8260,10.729
12.9530,8.5963,4.2072,4.2544,10.474
12.9630,8.9887,3.5899,3.7777,10.390
12.9650,9.4091,3.0269,3.2393,10.401
12.9770,9.8661,2.4075,3.0165,10.594
12.9840,10.3322,1.8519,3.0050,10.919
12.9950,10.7601,1.2529,3.0819,11.263
13.0040,11.1194,0.5372,3.2883,11.608
13.0150,11.1995,-0.1313,3.3380,11.687
13.0280,11.0297,-0.9599,3.4944,11.610
13.0810,10.6818,-1.6835,3.5687,11.387
13.0830,9.7902,-1.9960,3.6715,10.645
13.0840,8.7037,-2.1719,3.7833,9.736
13.0850,7.9397,-2.5037,4.1125,9.285
13.0860,7.5825,-3.0162,4.4020,9.272
13.0880,6.6823,-3.2655,4.3760,8.629
13.0960,5.6934,-3.2070,4.3676,7.860
13.1040,4.7162,-3.3056,4.4829,7.298
13.1140,3.9873,-3.4391,4.4031,6.864
13.1260,3.3045,-3.6690,4.1421,6.445
13.1350,2.5951,-3.8579,3.6255,5.896
13.1460,2.0864,-4.1741,3.1151,5.611
13.1540,1.8153,-4.5016,2.4654,5.444
13.1650,1.4991,-4.9243,1.8894,5.483
13.1800,1.1479,-5.4951,1.4106,5.788
13.2340,0.8109,-5.8747,1.0984,6.031
13.2360,0.5278,-6.3033,0.9074,6.390
13.2370,0.2678,-6.8527,0.6517,6.889
13.2370,-0.0278,-7.3465,0.6214,7.373
13.2380,-0.1600,-7.9672,0.4939,7.984
13.2420,-0.4972,-8.5161,0.5413,8.548
13.2490,-0.7978,-8.9820,0.5286,9.033
13.2550,-1.2065,-9.3580,0.4808,9.448
13.2650,-1.5031,-9.7616,0.5198,9.890
13.2750,-1.9926,-10.0523,0.4851,10.259
13.2840,-2.4203,-10.2591,0.5411,10.555
13.2990,-2.9708,-10.2872,0.5427,10.721
13.3480,-3.3734,-10.2423,0.6375,10.802
13.3500,-3.4870,-10.2406,0.6131,10.835
13.3520,-3.4006,-10.2853,0.5755,10.848
13.3530,-3.3603,-10.2526,0.4894,10.800
13.3540,-3.3016,-10.1749,0.3892,10.704
13.3650,-3.2536,-10.0949,0.3833,10.613
13.3670,-3.1872,-10.0634,0.4380,10.565
13.4070,-3.1620,-10.0414,0.4541,10.537
13.4090,-3.2207,-9.9789,0.5143,10.498
13.4100,-3.4692,-9.9828,0.5067,10.581
13.4110,-3.8440,-9.8427,0.5239,10.580
13.4140,-4.2278,-9.8171,0.5687,10.704
13.4300,-4.7463,-9.7298,0.4951,10.837
13.4350,-5.2985,-9.6501,0.6590,11.029
13.4740,-5.9391,-9.6843,0.7369,11.384
13.4760,-6.4541,-9.5713,0.7538,11.569
13.4770,-6.9458,-9.3465,0.7126,11.667
13.4780,-7.2296,-9.3611,0.6029,11.843
13.4850,-7.3120,-9.5071,0.3681,11.999
13.4940,-7.4044,-9.7408,0.0394,12.236
13.5040,-7.6179,-9.9156,-0.3454,12.509
13.5140,-7.7808,-10.0394,-0.8311,12.729
13.5230,-7.9466,-10.1188,-1.2061,12.923
13.5610,-8.0853,-9.9399,-1.5101,12.902
13.5640,-7.9916,-9.9033,-1.5895,12.824
13.5650,-7.2058,-10.0220,-1.4387,12.427
13.5980,-5.8243,-10.3943,-1.1045,11.966
13.6000,-4.4687,-10.7679,-0.7687,11.684
13.6010,-2.8848,-11.3133,-0.4180,11.683
13.6030,-1.2025,-11.7823,0.1775,11.845
13.6040,0.3253,-12.2477,0.6209,12.268
13.6140,1.4639,-12.8719,1.0479,12.997
13.6250,2.3225,-13.0920,1.6490,13.398
13.6360,3.1084,-12.7590,1.8237,13.258
13.6680,4.1858,-12.1433,2.1236,13.019
13.6700,5.3394,-11.1807,2.0337,12.556
13.6710,6.1352,-9.9023,1.7528,11.780
13.6830,6.5586,-8.5196,1.3909,10.841
13.6870,6.3041,-7.0333,1.0319,9.501
13.7200,5.7634,-5.4950,0.8154,8.005
13.7220,5.1227,-4.1158,0.9560,6.641
13.7240,4.6144,-3.0272,1.3137,5.673
13.7260,4.2733,-2.0469,1.8545,5.088
13.7350,3.7710,-0.9158,2.4186,4.573
13.7450,3.4699,0.0236,2.9679,4.566
13.7540,3.3417,0.7884,3.2550,4.731
13.7640,3.2959,1.3528,3.1603,4.762
13.8010,3.3135,1.7088,2.8516,4.694
13.8030,3.4324,1.8024,2.1623,4.439
13.8030,3.6522,1.7523,1.1972,4.224
13.8050,3.8148,1.6686,0.3921,4.182
13.8160,4.0194,1.4487,-0.2465,4.280
13.8260,4.2979,1.1589,-0.9256,4.547
13.8340,4.4659,0.7913,-1.6188,4.816
13.8450,4.4768,0.5129,-2.0386,4.946
13.8540,4.4060,0.3391,-2.2925,4.978
13.8730,4.4646,0.2413,-2.1364,4.955
13.8800,4.2948,0.2729,-1.6006,4.591
13.9020,3.9718,0.3354,-1.0302,4.117
13.9030,3.8010,0.4111,-0.5406,3.861
13.9050,3.7591,0.4081,-0.0866,3.782
13.9160,3.7518,0.3745,0.3599,3.788
13.9270,3.7824,0.4998,0.7630,3.891
13.9370,4.0161,0.6337,1.0995,4.212
13.9450,4.3527,0.8094,1.4902,4.671
13.9540,4.7728,0.8922,1.8713,5.204
13.9650,5.1138,1.0247,2.3406,5.717
13.9750,5.3641,1.2576,2.9129,6.232
13.9840,5.6209,1.6137,3.1888,6.661
13.9940,5.8681,2.0236,3.8499,7.304
14.0030,6.0845,2.6610,4.2628,7.891
14.0190,6.4265,3.4720,4.6493,8.659
14.0660,6.8757,4.2584,4.8873,9.450
14.0680,7.4202,4.9741,5.0089,10.242
14.0690,8.2099,5.4289,5.1164,11.093
14.0700,9.1752,5.7185,5.1875,11.991
14.0730,10.1254,6.0444,5.2663,12.915
14.0820,10.7927,6.3107,5.5542,13.681
14.0880,11.2984,6.3676,5.9753,14.280
14.0960,11.5126,6.2671,6.2502,14.522
14.1050,11.4865,5.9073,6.5859,14.499
14.1170,11.1439,5.3093,6.6500,14.021
14.1300,10.3700,4.9320,6.5348,13.212
14.1830,9.6579,4.2844,6.1720,12.236
14.1850,9.2618,3.4978,5.7953,11.472
14.1850,9.2678,2.6045,5.4657,11.070
14.1870,9.4631,1.8097,5.2087,10.952
14.1870,9.7221,1.0109,5.0961,11.023
14.1880,9.9633,0.1305,4.7793,11.051
14.1980,10.2030,-0.6714,4.5815,11.205
14.2050,10.1509,-1.3210,4.5223,11.191
14.2150,10.0952,-2.0223,4.6151,11.283
14.2260,9.8956,-2.5891,4.5835,11.209
14.2350,9.4374,-3.0586,4.7164,10.985
14.2490,8.7326,-3.3450,4.6831,10.458
14.2550,7.9907,-3.6583,4.7321,9.981
14.2650,7.1351,-3.9323,4.4181,9.268
14.2740,6.2058,-3.9924,4.0910,8.437
14.2870,5.2413,-4.0398,3.9144,7.689
14.3420,4.3879,-4.1550,3.7522,7.113
14.3440,3.6155,-4.3317,3.6034,6.695
14.3450,2.9325,-4.4200,3.3746,6.287
14.3470,2.2384,-4.5417,3.0063,5.889
14.3470,1.6439,-4.7196,2.6004,5.634
14.3480,1.1675,-4.8973,1.9912,5.414
14.3540,0.7567,-5.2889,1.6034,5.578
14.3650,0.4507,-5.5943,1.1404,5.727
14.3740,0.1658,-5.9754,0.7796,6.028
14.3840,-0.1979,-6.2619,0.5389,6.288
14.3980,-0.4188,-6.7757,0.0992,6.789
14.4040,-0.7281,-7.1717,0.0299,7.209
14.4170,-0.9600,-7.5388,-0.0995,7.600
14.4650,-1.1870,-7.9703,-0.1062,8.059
14.4670,-1.3589,-8.3825,-0.0548,8.492
14.4670,-1.6396,-8.7216,0.1019,8.875
14.4680,-1.9382,-8.9958,0.2859,9.207
14.4690,-2.0395,-9.3757,0.4289,9.605
14.4740,-2.4508,-9.5892,0.5596,9.913
14.4870,-2.8178,-9.8460,0.5614,10.257
14.4950,-3.0942,-9.8418,0.6544,10.337
14.5040,-3.3157,-9.8529,0.6770,10.418
14.5140,-3.3168,-9.9327,0.6902,10.495
14.5240,-3.3533,-10.0948,0.6849,10.659
14.5360,-3.4935,-10.1034,0.5920,10.707
14.5920,-3.6147,-10.0332,0.6457,10.684
14.5940,-3.6565,-9.9606,0.4354,10.619
14.5960,-3.7254,-9.8075,0.3724,10.498
14.5970,-3.7936,-9.6524,0.4653,10.382
14.5980,-3.8579,-9.5713,0.5581,10.335
14.5990,-3.9503,-9.4958,0.7232,10.310
14.6050,-4.0158,-9.5504,0.8568,10.396
14.6180,-4.2020,-9.5048,0.9726,10.438
14.6250,-4.6156,-9.5867,1.0292,10.690
14.6630,-5.0947,-9.4832,1.0934,10.821
14.6650,-5.4427,-9.5736,1.1937,11.077
14.6660,-5.8089,-9.6209,1.2890,11.312
14.6670,-6.3421,-9.6283,1.3430,11.607
14.6740,-6.7815,-9.5656,1.4068,11.810
14.7040,-7.0331,-9.6201,1.2681,11.984
14.7060,-7.2747,-9.7594,1.1277,12.225
14.7070,-7.2818,-9.9452,0.8519,12.355
14.7190,-7.1266,-10.0734,0.6470,12.356
14.7340,-6.8997,-10.2678,0.3468,12.376
14.7360,-6.6720,-10.2905,0.1532,12.265
14.7800,-6.5288,-10.4599,-0.0588,12.330
14.7820,-6.1534,-10.5758,-0.0692,12.236
14.7830,-5.5296,-10.5936,0.0385,11.950
14.7840,-4.6072,-10.7148,0.2887,11.667
14.7850,-3.5276,-10.9570,0.5225,11.523
14.7950,-2.3381,-11.1327,0.7063,11.397
14.8040,-1.0741,-11.4075,0.9730,11.499
14.8130,0.4024,-11.9921,1.2307,12.062
14.8240,1.7282,-12.4979,1.4148,12.696
14.8340,2.7843,-12.5704,1.7275,12.990
14.8460,3.8869,-12.3595,1.6973,13.067
14.8970,4.8828,-12.0085,1.5289,13.053
14.8990,5.8186,-11.1321,1.4231,12.641
14.9000,6.2022,-9.6820,1.1497,11.556
14.9010,6.4523,-8.1361,0.9302,10.426
14.9030,6.5413,-6.6561,0.7618,9.363
14.9060,6.3111,-5.1946,0.8056,8.214
14.9190,5.8371,-3.9227,0.8350,7.082
14.9230,5.4828,-2.6413,1.2784,6.219
14.9600,4.9486,-1.5805,1.6759,5.459
14.9610,4.6141,-0.7360,2.1236,5.132
14.9620,4.2910,0.0481,2.6179,5.027
14.9650,3.9191,0.6573,2.8009,4.862
14.9760,3.8119,1.0643,2.7129,4.798
14.9840,3.8210,1.3332,2.3113,4.660
15.0000,3.7726,1.5201,1.7276,4.419
15.0480,3.9089,1.4642,1.1436,4.328
15.0500,4.1671,1.3741,0.5016,4.416
15.0510,4.4768,1.1881,-0.0279,4.632
15.0520,4.7975,1.0034,-0.6310,4.942
15.0540,4.9039,0.8845,-1.2039,5.126
15.0560,5.0057,0.8462,-1.5001,5.294
15.0650,5.0612,0.8446,-1.5300,5.354
15.0740,5.1085,0.8173,-1.3547,5.348
15.0840,5.1980,0.8531,-0.9724,5.357
15.0950,5.3242,0.9187,-0.7216,5.451
15.1040,5.3047,1.0091,-0.3728,5.413
15.1160,5.4696,1.2100,0.0009,5.602
15.1740,5.7333,1.2668,0.3154,5.880
15.1780,6.0606,1.3218,0.4602,6.220
15.1790,6.3496,1.4330,0.6141,6.538
15.1790,6.3133,1.5435,0.7864,6.547
15.1800,6.2110,1.7544,0.9335,6.521
15.1810,6.1759,1.9888,1.1485,6.589
15.1850,6.3131,2.1904,1.4971,6.848
15.1950,6.4378,2.5703,1.7661,7.153
15.2050,6.6390,3.1384,2.1214,7.644
15.2150,6.9670,3.8889,2.3939,8.330
15.2250,7.6215,4.4517,2.6455,9.214
15.2360,8.0735,5.2465,2.9143,10.060
15.2510,8.7748,5.8932,3.0597,11.004
15.3010,9.5413,6.2989,3.1820,11.868
15.3040,10.2380,6.4640,3.1782,12.518
15.3050,10.5240,6.6274,3.1974,12.841
15.3060,10.7464,6.6217,3.3042,13.048
15.3070,10.8583,6.4717,3.5310,13.125
15.3110,10.8822,5.9807,3.6794,12.951
15.3170,10.7234,5.3021,3.8247,12.559
15.3280,10.2616,5.0012,4.0093,12.099
15.3340,9.7782,4.6181,4.1107,11.569
15.3450,9.6455,4.0568,4.0354,11.215
15.3540,9.7204,3.3531,3.7312,10.939
15.3640,9.8073,2.6155,3.4409,10.717
15.3730,9.9779,1.8267,3.0848,10.602
15.3840,10.1243,1.1757,2.8279,10.577
15.3980,10.1718,0.5333,2.7466,10.550
15.4500,10.2843,-0.1892,2.7935,10.659
15.4520,10.2955,-0.8920,2.8313,10.715
15.4540,10.2604,-1.6042,3.0998,10.838
15.4550,9.9816,-2.2569,3.2283,10.731
15.4550,9.4669,-2.8048,3.4595,10.462
15.4570,8.9549,-3.2522,3.5855,10.179
15.4650,8.3956,-3.6629,3.6525,9.861
15.4740,7.8283,-4.0011,3.7590,9.561
15.4830,7.2039,-4.1738,3.8370,9.167
15.4950,6.6243,-4.3437,4.0361,8.890
15.5040,6.0029,-4.4891,4.1252,8.556
15.5150,5.3926,-4.7123,4.0652,8.235
15.5230,4.8572,-4.9524,4.0309,8.023
15.5370,4.1475,-5.1690,3.6855,7.583
15.5870,3.5267,-5.3818,3.2734,7.219
15.5880,2.9883,-5.6352,2.9194,7.015
15.5890,2.5586,-5.9744,2.4941,6.961
15.5910,2.2145,-6.3709,2.0862,7.060
15.5920,1.8218,-6.8405,1.7309,7.287
15.6010,1.4709,-7.2493,1.4020,7.529
15.6060,1.1588,-7.7268,1.2507,7.913
15.6150,0.8535,-8.1204,0.9605,8.221
15.6240,0.5495,-8.6079,0.8594,8.668
15.6350,0.1711,-9.1356,0.6954,9.164
15.6450,-0.3108,-9.4613,0.6298,9.487
15.6540,-0.7547,-9.8419,0.4774,9.882
15.6660,-1.0160,-10.2582,0.3750,10.315
15.6740,-1.5785,-10.5546,0.5164,10.684
15.7130,-1.9266,-10.6670,0.6124,10.857
15.7150,-2.1772,-10.9075,0.8014,11.151
15.7170,-2.5035,-11.0136,0.8721,11.328
15.7180,-2.7542,-11.1488,0.8572,11.516
15.7530,-2.9641,-11.1836,0.9763,11.611
15.7560,-3.0919,-11.2898,0.8829,11.739
15.7570,-3.3877,-11.3442,0.8629,11.871
15.7580,-3.6280,-11.2266,0.6880,11.818
15.7650,-3.8384,-11.2660,0.6516,11.920
15.7740,-3.9491,-11.1793,0.5833,11.871
15.7830,-4.0956,-11.0869,0.4952,11.830
15.7990,-4.2172,-10.9416,0.3647,11.732
15.8030,-4.5460,-10.8614,0.2487,11.777
15.8400,-4.8975,-10.6598,0.2344,11.733
15.8420,-5.3597,-10.4977,0.0046,11.787
15.8450,-5.6961,-10.2480,-0.0325,11.725
15.8450,-6.0671,-10.0807,0.0974,11.766
15.8540,-6.2869,-10.0533,0.1380,11.858
15.8650,-6.5762,-10.1278,0.2104,12.077
15.8740,-6.8942,-10.2293,0.3730,12.341
15.8840,-7.2236,-10.3884,0.3091,12.657
15.8940,-7.4849,-10.5778,0.1168,12.959
15.9040,-7.5447,-10.7383,-0.2905,13.127
15.9150,-7.6193,-10.9443,-0.7201,13.355
15.9230,-7.8623,-11.0692,-1.2515,13.635
15.9340,-8.0352,-11.0893,-1.6022,13.788
15.9530,-8.0513,-11.1888,-1.7916,13.900
16.0050,-7.8633,-11.5341,-1.7855,14.073
16.0070,-7.3678,-11.8472,-1.3571,14.017
16.0090,-6.4554,-12.1444,-0.7007,13.771
16.0130,-5.6677,-12.4753,0.0276,13.702
16.0140,-4.4287,-12.9096,0.6323,13.663
16.0160,-2.7160,-13.4806,1.2741,13.810
16.0170,-0.7530,-14.0474,1.9859,14.207
16.0260,1.3259,-14.6803,2.4911,14.949
16.0340,3.4071,-15.1755,2.7113,15.788
16.0440,5.1736,-15.1982,2.8565,16.307
16.0550,6.3863,-14.8385,2.6937,16.377
16.0640,7.3717,-14.0379,2.3354,16.027
16.0730,7.8962,-12.7235,1.8278,15.086
16.0900,7.9696,-11.0047,1.2003,13.640
16.1360,7.6946,-9.0957,0.8882,11.947
16.1380,7.2670,-7.2435,0.8846,10.299
16.1390,6.7715,-5.6555,1.0027,8.879
16.1400,6.2938,-4.1266,1.3241,7.642
16.1410,5.8405,-2.9007,1.6655,6.731
16.1530,5.5588,-1.8201,2.5081,6.364
16.1570,5.1431,-0.8172,3.3479,6.191
16.1940,4.7601,0.0986,4.3096,6.422
16.1960,4.4299,0.6907,5.0494,6.753
16.1970,4.3760,1.1056,5.2205,6.901
16.1970,4.5298,1.2869,4.8948,6.792
16.2030,4.8512,1.2647,4.1604,6.515
16.2150,5.1314,1.1179,3.3167,6.211
16.2230,5.4589,0.9980,2.6360,6.144
16.2360,5.7736,0.9061,1.7471,6.100
16.2710,6.2077,0.6353,1.0497,6.328
16.2720,6.4074,0.3456,0.4604,6.433
16.2730,6.2714,0.1968,-0.2804,6.281
16.2750,5.8311,0.0372,-0.7581,5.880
16.2860,5.1911,0.0226,-1.1085,5.308
16.2960,4.6874,0.1174,-1.3348,4.875
16.3030,4.2391,0.3417,-1.1306,4.401
16.3140,4.0793,0.6213,-0.7939,4.202
16.3230,4.4369,0.8185,-0.2352,4.518
16.3340,5.1142,1.0355,0.4373,5.236
16.3440,5.7475,1.2288,1.0869,5.977
16.3540,6.2679,1.5341,1.6679,6.665
16.3640,6.5227,1.7850,2.0957,7.080
16.3740,6.7163,1.9586,2.2373,7.345
16.3900,6.8627,2.3207,2.3717,7.623
16.4420,6.9486,2.7841,2.1850,7.798
16.4440,7.1779,3.1095,2.0694,8.092
16.4450,7.5219,3.5663,2.3259,8.643
16.4470,7.6998,4.1580,2.8268,9.196
16.4480,7.9921,4.7257,3.4358,9.900
16.4500,8.4768,5.2869,4.1742,10.827
16.4540,9.2959,5.3766,4.5767,11.673
16.4660,10.1631,5.3582,5.0567,12.553
16.4730,10.5260,5.4161,5.3398,12.986
16.4830,10.8061,5.6184,5.9852,13.571
16.5030,11.0317,5.6482,6.1914,13.854
16.5590,11.3140,5.2318,6.3143,13.973
16.5620,11.2263,4.6321,6.1325,13.605
16.5630,10.5361,4.1309,5.6901,12.667
16.5640,9.6869,3.8585,5.0883,11.602
16.5640,9.1341,3.4621,4.5123,10.760
16.5650,8.7589,3.0140,4.1387,10.145
16.5670,8.5507,2.5433,3.7903,9.693
16.5740,8.4346,2.2052,3.4702,9.383
16.5840,8.5502,1.6866,3.2700,9.308
16.5950,8.6495,1.3014,3.1096,9.283
16.6040,8.9476,0.8359,3.1102,9.510
16.6170,9.3185,0.2773,3.0759,9.817
16.6240,9.7246,-0.3597,3.2094,10.247
16.6350,9.9232,-1.1185,3.3897,10.546
16.6910,9.7812,-1.7725,3.5098,10.542
16.6930,9.2534,-2.2696,3.6012,10.186
16.6940,8.6702,-2.7155,3.6728,9.800
16.6950,7.9773,-2.9809,3.6710,9.274
16.6960,7.3197,-3.3360,3.6936,8.852
16.6970,6.7274,-3.6276,3.6119,8.454
16.7040,6.1357,-3.8455,3.4463,8.019
16.7150,5.5231,-4.0604,3.3033,7.609
16.7240,5.0643,-4.3629,3.2979,7.454
16.7340,4.5364,-4.8072,3.2667,7.373
16.7450,3.9132,-5.1251,3.2054,7.201
16.7540,3.3929,-5.6156,2.9727,7.203
16.7640,2.9950,-5.9857,2.5767,7.172
16.7740,2.6067,-6.4509,2.1277,7.276
16.7890,2.1921,-6.9841,1.6756,7.509
16.8390,1.8395,-7.4237,1.2445,7.749
16.8410,1.4848,-7.9121,0.9978,8.112
16.8420,1.1505,-8.3228,1.0172,8.463
16.8430,0.8592,-8.8461,0.7788,8.922
16.8440,0.6215,-9.3436,0.7922,9.398
16.8450,0.2726,-9.7302,0.8986,9.775
16.8540,-0.0433,-10.1883,1.0673,10.244
16.8690,-0.4076,-10.5120,1.2597,10.595
16.8740,-0.7412,-10.8991,1.3225,11.004
16.9140,-1.2329,-11.1951,1.4203,11.352
16.9160,-1.7009,-11.3438,1.5249,11.572
16.9170,-2.0840,-11.4152,1.6002,11.714
16.9180,-2.3511,-11.5419,1.6195,11.890
16.9240,-2.5374,-11.7975,1.6580,12.181
16.9350,-2.6889,-11.9804,1.4716,12.366
16.9480,-3.0238,-12.0246,1.3357,12.471
16.9570,-3.4427,-11.9249,1.2587,12.476
16.9880,-3.8288,-11.8268,0.9950,12.471
16.9900,-4.1859,-11.6120,0.8811,12.375
16.9920,-4.4705,-11.5218,0.7543,12.382
17.0030,-4.8182,-11.3274,0.5121,12.320
17.0060,-5.1915,-11.1438,0.3940,12.300
17.0160,-5.5500,-10.8665,0.3278,12.206
17.0240,-6.0120,-10.6174,0.0605,12.202
17.0340,-6.4790,-10.3617,0.0017,12.221
17.0430,-6.9575,-10.1030,-0.0786,12.267
17.0540,-7.2428,-10.0188,0.0759,12.363
17.0690,-7.5149,-10.0962,0.0339,12.586
17.0740,-7.6758,-10.0649,-0.0732,12.658
17.1240,-7.5729,-10.2061,-0.1434,12.710
17.1280,-7.0746,-10.3975,-0.2846,12.579
17.1320,-6.4284,-10.6561,-0.8395,12.473
17.1330,-6.0300,-10.8275,-1.3861,12.471
17.1340,-5.9454,-10.9654,-1.9086,12.619
17.1360,-5.9511,-11.0551,-2.7507,12.853
17.1460,-6.1618,-11.0890,-3.2255,13.090
17.1540,-6.2995,-11.1052,-3.4422,13.223
17.1670,-6.0732,-11.1673,-3.0127,13.064
17.1740,-5.5018,-11.4625,-2.3601,12.932
17.1860,-4.6335,-11.9671,-1.5691,12.928
17.1940,-3.4515,-12.7361,-0.8357,13.222
17.2060,-1.8382,-13.3699,-0.2351,13.498
17.2580,-0.1580,-13.9609,0.2377,13.964
17.2600,1.8386,-14.4616,0.8047,14.600
17.2630,3.5640,-14.5261,1.0938,14.997
17.2640,5.2134,-14.3320,1.4485,15.319
17.2650,6.4766,-13.6417,1.4807,15.173
17.2660,7.0921,-12.5897,1.3158,14.510
17.2750,7.1978,-11.4732,1.1209,13.590
17.2840,6.9739,-10.0504,0.9745,12.272
17.2940,6.4616,-8.6089,0.9273,10.804
17.3050,5.9674,-7.3497,1.1456,9.536
17.3620,5.5155,-6.1048,1.5920,8.380
17.3640,5.0623,-4.9768,1.9890,7.372
17.3650,4.7124,-3.9548,2.5363,6.654
17.3660,4.3538,-2.8906,3.2775,6.169
17.3670,3.7404,-1.8137,3.8079,5.637
17.3680,3.4972,-0.9892,4.1000,5.479
17.3740,3.3595,-0.2292,3.9648,5.202
17.3840,3.4796,0.3481,3.6494,5.054
17.3930,3.8105,0.6923,3.1622,5.000
17.4030,4.2517,0.8558,2.8396,5.184
17.4470,4.7137,0.9949,2.5709,5.461
17.4480,5.0726,0.9923,2.2351,5.631
17.4490,5.4503,0.8223,2.1671,5.923
17.4500,5.5833,0.7653,2.2011,6.050
17.4540,5.5781,0.5657,2.4037,6.100
17.4660,5.5035,0.4511,2.6221,6.113
17.4730,5.2536,0.2864,2.7569,5.940
17.4840,4.9022,0.2927,2.9948,5.752
17.4950,4.6201,0.4859,3.2107,5.647
17.5290,4.4141,0.7282,3.3948,5.616
17.5310,4.7312,1.0054,3.3965,5.910
17.5320,5.4646,1.2585,3.2717,6.492
17.5330,6.2228,1.5527,3.0612,7.107
17.5430,6.9034,1.8279,2.7703,7.660
17.5530,7.4474,2.1580,2.6089,8.181
17.5630,7.9457,2.2610,2.4940,8.629
17.5730,8.1676,2.6157,2.4127,8.909
17.5830,8.1821,3.1537,2.6899,9.172
17.5930,8.0135,3.7252,3.1249,9.373
17.6040,7.8845,4.3480,3.7339,9.747
17.6180,7.7622,4.9821,4.1881,10.130
17.6250,7.6962,5.6432,4.5865,10.588
17.6760,7.6242,6.2649,4.7598,10.956
17.6780,7.9683,6.6113,4.9543,11.478
17.6800,8.5076,6.6711,5.2614,12.024
17.6810,8.6007,6.8293,5.5176,12.290
17.6820,8.5488,6.8185,5.6725,12.319
17.6850,8.4692,6.5471,5.8996,12.223
17.6970,8.3861,6.0641,6.1910,12.059
17.7050,8.1904,5.5565,6.3360,11.752
17.7140,7.7417,5.1170,6.2380,11.182
17.7240,7.2937,4.6598,5.9093,10.480
17.7340,7.3034,4.0431,5.4720,9.981
17.7440,7.7156,3.3820,5.2468,9.925
17.7580,8.4971,2.6613,5.0787,10.251
17.8120,9.3819,1.8170,4.8775,10.729
17.8140,9.9698,1.1489,4.5265,11.009
17.8140,10.2501,0.6365,4.2323,11.108
17.8160,10.1067,0.1743,3.8446,10.815
17.8170,9.8997,-0.2042,3.5211,10.509
17.8180,9.6639,-0.5498,3.5308,10.303
17.8240,9.2349,-0.9312,3.7876,10.025
17.8350,8.7992,-1.3739,4.0831,9.797
17.8430,8.3150,-1.8754,4.2649,9.531
17.8530,7.7504,-2.3350,4.4537,9.239
17.8640,7.1068,-2.6535,4.6974,8.923
17.8740,6.2954,-2.9231,4.8735,8.481
17.8930,5.4456,-3.1084,5.1613,8.121
17.9300,4.8590,-3.4864,5.4083,8.063
17.9320,4.2920,-3.9270,5.2372,7.828
17.9330,3.8217,-4.1819,4.8460,7.455
17.9340,3.3799,-4.4006,3.9965,6.838
17.9360,3.0223,-4.7079,3.0784,6.386
17.9440,2.9445,-5.0485,2.2342,6.257
17.9570,2.7133,-5.4477,1.4777,6.263
17.9640,2.4516,-5.9269,0.8667,6.472
17.9730,2.2249,-6.4534,0.3401,6.835
17.9850,1.8804,-6.9351,0.0127,7.185
17.9930,1.4589,-7.4121,-0.3591,7.563
18.0040,1.1348,-8.0568,-0.5963,8.158
18.0190,0.6954,-8.5691,-0.6424,8.621
18.0240,0.1741,-8.9884,-0.6567,9.014
18.0690,-0.3942,-9.3557,-0.7180,9.391
18.0710,-0.9139,-9.7839,-0.5074,9.840
18.0720,-1.5386,-10.0220,-0.4436,10.149
18.0730,-1.9245,-10.2162,-0.3028,10.400
18.0740,-2.3223,-10.4061,-0.1488,10.663
18.0890,-2.6340,-10.4799,-0.0192,10.806
18.0940,-2.8668,-10.5232,0.0242,10.907
18.1300,-3.0459,-10.5961,-0.0333,11.025
18.1330,-3.0966,-10.6066,-0.1540,11.050
18.1340,-3.1540,-10.5456,-0.1842,11.009
18.1350,-3.3207,-10.4775,-0.3423,10.996
18.1440,-3.4269,-10.4778,-0.4195,11.032
18.1550,-3.3799,-10.5466,-0.4700,11.085
18.1670,-3.3979,-10.5414,-0.2707,11.079
18.1780,-3.5095,-10.5186,0.0069,11.089
18.2090,-3.6824,-10.3855,0.2094,11.021
18.2140,-3.8798,-10.2931,0.4293,11.008
18.2150,-4.2451,-10.1585,0.5284,11.022
18.2160,-4.6760,-10.0673,0.5750,11.115
18.2240,-5.1652,-9.8498,0.5886,11.137
18.2370,-5.5874,-9.8096,0.6479,11.308
18.2430,-5.9578,-9.8024,0.7683,11.497
18.2930,-6.4385,-9.7157,0.7549,11.680
18.2970,-6.6983,-9.6587,0.7309,11.777
18.2970,-6.7045,-9.8499,0.4361,11.923
18.2980,-6.1006,-10.0659,0.3513,11.776
18.2990,-4.8572,-10.2125,0.2011,11.311
18.3030,-3.7962,-9.9991,0.1589,10.697
18.3140,-3.5982,-9.5695,-0.2098,10.226
18.3230,-3.6819,-9.1388,-0.7990,9.885
18.3350,-3.9563,-8.8036,-1.3754,9.749
18.3420,-4.3380,-8.4955,-1.6598,9.682
18.3820,-4.3654,-8.5432,-1.8879,9.778
18.3840,-3.9541,-8.9682,-1.7624,9.958
18.3850,-3.2090,-9.6577,-1.6427,10.309
18.3860,-2.3513,-10.4493,-1.5381,10.820
18.3920,-1.3951,-11.1295,-1.0170,11.263
18.4030,-0.5224,-11.5019,-0.4493,11.523
18.4590,0.5624,-11.5957,0.1093,11.610
18.4610,1.9010,-11.6016,0.4389,11.765
18.4640,3.3771,-11.3943,0.8125,11.912
18.4650,4.5632,-11.0221,0.9870,11.970
18.4650,5.2596,-10.4036,0.9023,11.692
18.4660,5.4673,-9.5455,0.8005,11.029
18.4740,5.3878,-8.6009,0.7677,10.178
18.5190,4.9300,-7.4707,0.9018,8.996
18.5220,4.2087,-6.3848,1.2533,7.749
18.5220,3.5162,-5.4777,1.8380,6.764
18.5230,2.7234,-4.5524,2.3374,5.797
18.5240,2.1318,-3.6068,2.7964,5.037
18.5640,1.6047,-2.6778,3.0864,4.390
18.5650,1.0983,-1.8769,3.1777,3.851
18.5660,1.0538,-1.1504,3.0895,3.461
18.5670,1.5898,-0.5252,2.9437,3.387
18.5730,2.1633,0.1815,2.6915,3.458
18.5840,2.7423,0.8512,2.5958,3.871
18.5940,3.1643,1.3962,2.0957,4.044
18.6070,3.5609,1.6945,1.4713,4.209
18.6660,3.7732,1.8022,0.6604,4.233
18.6680,3.8547,1.6634,0.0925,4.199
18.6690,3.9530,1.4956,-0.4859,4.254
18.6700,4.0293,1.1292,-0.5839,4.225
18.6710,3.9941,0.8059,-0.8630,4.165
18.6720,3.9385,0.5508,-0.6287,4.026
18.6740,4.2073,0.6522,-0.0751,4.258
18.6860,4.5111,0.8824,0.7897,4.664
18.6930,4.7191,1.1087,1.4003,5.046
18.7030,4.7984,1.2505,1.8210,5.282
18.7140,4.9261,1.3320,2.1065,5.521
18.7270,5.1923,1.3005,2.2423,5.803
18.7830,5.4408,1.2588,2.2209,6.010
18.7840,5.7874,1.3263,2.3217,6.375
18.7860,6.1824,1.5153,2.5416,6.854
18.7870,6.6756,1.7934,2.7703,7.447
18.7870,7.0818,2.1200,2.7060,7.872
18.7880,7.5083,2.5015,2.5995,8.330
18.7940,7.9767,3.0600,2.5310,8.911
18.8100,8.3379,3.6197,2.4176,9.406
18.8160,8.6396,4.3335,2.3831,9.955
18.8240,8.7690,4.9927,2.4290,10.379
18.8330,8.9724,5.5873,2.5113,10.864
18.8430,9.6277,5.8094,2.5739,11.535
18.8530,9.9991,5.8911,2.6658,11.908
18.8630,10.1240,6.1136,2.7721,12.147
18.8800,9.9733,6.3242,3.3113,12.265
18.8830,9.8187,6.3551,3.6280,12.246
18.8920,9.7919,6.3093,3.8941,12.282
18.9180,9.6974,6.1404,4.0652,12.177
18.9200,9.3164,5.9600,4.1681,11.819
18.9230,8.7294,5.8321,4.1358,11.284
18.9330,8.3579,5.3364,3.7963,10.618
18.9430,8.3003,4.4967,3.1899,9.964
18.9520,8.3872,3.5912,2.7302,9.523
18.9640,8.5735,2.6929,2.5158,9.332
18.9730,9.0114,1.7620,2.4390,9.500
18.9830,9.2493,0.7757,2.4482,9.599
18.9920,9.4771,-0.1718,2.5024,9.803
19.0030,9.6828,-1.0327,2.6262,10.086
19.0550,9.9067,-1.8218,2.7519,10.442
19.0570,9.8573,-2.6362,2.9026,10.608
19.0580,9.7261,-3.2480,3.0583,10.700
19.0590,9.1493,-3.4881,2.8931,10.210
19.0590,8.8805,-4.0945,3.0949,10.257
19.0690,8.6184,-4.7722,3.0419,10.310
19.0750,7.8220,-4.8665,2.9914,9.686
19.0830,6.8814,-4.9391,3.2169,9.061
19.0930,5.9862,-5.0623,3.4273,8.556
19.1030,5.0075,-5.2197,3.5277,8.048
19.1140,3.9583,-5.2477,3.6155,7.502
19.1230,3.0475,-5.2499,3.3649,6.941
19.1390,2.2434,-5.3540,2.9847,6.527
19.1430,1.6617,-5.5048,2.6716,6.340
19.2000,1.2394,-5.7966,2.3514,6.377
19.2010,0.6973,-6.0874,1.9621,6.434
19.2030,0.1932,-6.4372,1.5517,6.624
19.2040,-0.1341,-6.7816,1.1868,6.886
19.2040,-0.5092,-7.2930,0.9471,7.372
19.2050,-0.7974,-7.6566,0.6847,7.728
19.2130,-1.0516,-8.0179,0.5046,8.102
19.2230,-1.3245,-8.3835,0.2724,8.492
19.2330,-1.5458,-8.6626,0.1859,8.801
19.2440,-1.7021,-8.9476,0.0115,9.108
19.2540,-1.9621,-9.2164,-0.1436,9.424
19.2710,-2.1830,-9.4658,-0.3220,9.720
19.2750,-2.3747,-9.6938,-0.4960,9.993
19.3510,-2.6474,-9.9478,-0.6718,10.316
19.3530,-2.9914,-10.1199,-0.6428,10.572
19.3550,-3.2297,-10.3161,-0.6303,10.828
19.3560,-3.5161,-10.3604,-0.5078,10.953
19.3560,-3.6313,-10.3876,-0.4295,11.012
19.3570,-3.8064,-10.4656,-0.4553,11.146
19.3580,-3.8609,-10.5979,-0.5227,11.291
19.3590,-3.9875,-10.6653,-0.5606,11.400
19.3710,-4.0154,-10.6439,-0.6159,11.393
19.3760,-4.1234,-10.5680,-0.5245,11.356
19.4140,-4.2269,-10.5583,-0.7862,11.400
19.4160,-4.3797,-10.5783,-0.8376,11.480
19.4170,-4.6452,-10.5182,-0.8322,11.528
19.4180,-4.9772,-10.4214,-0.7052,11.570
19.4230,-5.2617,-10.2980,-0.6691,11.584
19.4340,-5.7156,-10.2286,-0.7209,11.739
19.4420,-6.0914,-10.1588,-0.5996,11.860
19.4530,-6.3230,-10.1114,-0.3861,11.932
19.4630,-6.7602,-10.1859,-0.3356,12.230
19.5080,-7.1117,-10.1649,-0.2054,12.407
19.5100,-7.2972,-10.2790,-0.1650,12.607
19.5110,-7.2122,-10.5158,-0.4045,12.758
19.5130,-7.1344,-10.9356,-0.6445,13.073
19.5190,-7.0212,-11.2376,-0.8299,13.277
19.5240,-7.0398,-11.4755,-1.0942,13.507
19.5330,-6.9973,-11.5676,-1.2719,13.579
19.5430,-6.8136,-11.4901,-1.3508,13.427
19.5530,-6.1368,-11.4384,-1.2721,13.043
19.5980,-4.9769,-11.6774,-1.0619,12.738
19.6000,-3.6259,-12.0467,-0.8144,12.607
19.6010,-2.0549,-12.3987,-0.4170,12.575
19.6020,-0.5757,-12.7565,0.0319,12.770
19.6040,0.9531,-13.3743,0.5250,13.419
19.6130,2.4175,-13.9232,1.1755,14.180
19.6230,3.9482,-14.3890,1.6289,15.010
19.6330,5.1755,-14.5485,2.0439,15.576
19.6430,6.2591,-14.2815,2.2670,15.757
19.6530,7.2663,-13.4782,2.1249,15.459
19.6620,8.0309,-12.2795,1.9762,14.805
19.6730,8.4656,-10.7864,1.9076,13.844
19.6840,8.6616,-9.1479,2.1900,12.787
19.6930,8.3938,-7.3816,2.6719,11.493
19.7070,7.8531,-5.6479,3.1315,10.167
19.7730,7.1004,-3.8943,3.9864,9.026
19.7740,6.2752,-2.2881,4.7755,8.211
19.7750,5.6050,-0.8185,5.7136,8.046
19.7760,4.9013,0.4710,6.2792,7.980
19.7770,4.3185,1.6345,6.5449,8.010
19.7770,3.9597,2.4646,6.2459,7.795
19.7780,3.7959,3.0516,5.6609,7.468
19.7860,3.9321,3.3079,4.7521,6.999
19.7920,4.2559,3.4268,3.7739,6.641
19.8020,4.4872,3.4477,2.9214,6.368
19.8130,4.8997,3.2137,2.1044,6.226
19.8230,5.2972,2.8403,0.9939,6.092
19.8380,5.5602,2.4654,0.1374,6.084
19.8440,5.6772,2.1304,-0.6380,6.097
19.9030,5.6005,1.9542,-1.4207,6.099
19.9050,5.3572,1.8458,-1.9491,5.992
19.9060,5.0324,1.7809,-2.2162,5.780
19.9080,4.6660,1.6914,-2.4410,5.531
19.9090,4.3080,1.5035,-2.9035,5.408
19.9100,3.8644,1.2425,-3.1147,5.117
19.9140,3.4286,1.2116,-2.9206,4.664
19.9240,3.0328,1.2403,-2.3212,4.015
19.9350,2.6973,1.2486,-1.5031,3.331
19.9430,2.5854,1.2854,-0.6579,2.961
19.9530,2.5752,1.2377,0.1505,2.861
19.9630,2.8355,1.1904,0.7651,3.169
19.9730,3.0906,0.9549,1.7621,3.684
20.0380,3.3122,0.9721,2.5313,4.281
20.0400,3.5710,1.3899,3.3660,5.100
20.0410,4.2206,1.8616,4.0255,6.122
20.0420,5.0042,2.3996,4.5427,7.172
20.0430,5.8023,2.8275,4.8219,8.057
20.0430,6.4218,3.4067,4.8506,8.739
20.0450,7.0279,3.9672,4.9715,9.479
20.0530,7.7383,4.2551,5.1295,10.213
20.0650,8.4560,4.4896,5.2615,10.924
20.0770,9.0117,4.6696,5.2821,11.442
20.0850,9.4244,4.8136,5.2474,11.812
20.0920,9.6253,4.6917,4.8629,11.760
20.1030,9.6431,4.4385,4.3683,11.479
20.1820,9.5690,4.2219,3.9347,11.175
20.1840,9.1748,3.9754,3.6277,10.637
20.1850,8.6941,3.7910,3.4352,10.088
20.1870,8.2956,3.4686,3.2623,9.565
20.1870,8.3711,2.9705,3.1289,9.418
20.1880,8.6721,2.2679,3.0184,9.458
20.1890,8.9676,1.5374,2.9974,9.579
20.1900,9.2974,0.8919,2.9510,9.795
20.1930,9.5462,0.0572,2.9620,9.995
20.2030,9.7039,-0.6611,2.9800,10.173
20.2130,9.7424,-1.4439,3.1011,10.326
20.2230,9.6565,-2.1561,3.1086,10.371
20.2460,9.4157,-2.8871,3.2126,10.359
20.2510,8.9641,-3.3337,3.0557,10.040
20.2570,8.5400,-4.1327,3.0888,9.978
20.2970,8.2585,-4.9843,3.2014,10.163
20.2990,7.5056,-5.2946,3.3170,9.766
20.2990,6.6881,-5.4412,3.3859,9.263
20.3000,5.9223,-5.6456,3.4503,8.880
20.3040,5.4340,-5.8273,3.2393,8.601
20.3130,4.7212,-6.0112,3.0494,8.229
20.3230,3.8666,-5.9535,2.9474,7.686
20.3350,3.0634,-5.9185,2.8480,7.247
20.3440,2.1590,-5.7813,2.6832,6.729
20.3550,1.3537,-5.6876,2.3999,6.320
20.3630,0.6784,-5.8061,2.0725,6.202
20.3740,0.1963,-5.9413,1.6652,6.173
20.3910,-0.3655,-6.0546,1.2869,6.201
20.4650,-0.7777,-6.3324,0.8430,6.435
20.4680,-1.0589,-6.7083,0.5870,6.817
20.4680,-1.2842,-7.1276,0.4108,7.254
20.4690,-1.3362,-7.8172,0.6268,7.955
20.4700,-1.6350,-8.1175,0.9120,8.331
20.4710,-2.1243,-8.0764,1.0906,8.422
20.4710,-2.6039,-8.3269,1.0351,8.786
20.4720,-2.8894,-8.7411,0.9072,9.251
20.4810,-3.3663,-8.9286,0.6156,9.562
20.4850,-3.8056,-9.0849,0.3909,9.858
20.4940,-4.1395,-9.3197,0.2411,10.201
20.5070,-4.3214,-9.5555,0.0150,10.487
20.5140,-4.6360,-9.7134,-0.0705,10.763
20.5230,-4.8442,-9.6552,-0.0824,10.803
20.5900,-5.0956,-9.6816,-0.0815,10.941
20.5920,-5.1709,-9.7300,-0.1405,11.020
20.5930,-5.1925,-9.8629,-0.1860,11.148
20.5940,-5.2369,-9.8628,-0.1000,11.167
20.5950,-5.2294,-9.9074,-0.2027,11.205
20.5950,-5.2464,-9.9943,-0.0925,11.288
20.5960,-5.3201,-10.1111,-0.0389,11.425
20.6080,-5.4689,-9.9603,0.1322,11.364
20.6130,-5.7974,-9.8162,0.3680,11.406
20.6580,-6.0851,-9.7758,0.4757,11.525
20.6610,-6.3530,-9.6791,0.4687,11.587
20.6610,-6.7314,-9.4869,0.4846,11.643
20.6620,-7.1922,-9.3239,0.4644,11.785
20.7060,-7.5160,-9.2694,0.5826,11.948
20.7080,-7.7077,-9.3995,0.5258,12.167
20.7090,-7.9978,-9.5731,0.5322,12.486
20.7090,-8.2385,-9.6915,0.4384,12.728
20.7100,-8.2773,-9.9902,0.1658,12.975
20.7130,-8.1862,-10.2505,0.0755,13.118
20.7230,-8.0311,-10.5054,0.0190,13.224
20.7770,-7.7157,-10.7182,-0.1610,13.207
20.7790,-7.4397,-10.8097,-0.2660,13.125
20.7810,-6.9510,-10.8796,-0.3179,12.914
20.7820,-6.2918,-10.9225,-0.4560,12.613
20.7830,-5.3860,-10.9500,-0.3945,12.209
20.8240,-3.9957,-11.2548,-0.2206,11.945
20.8270,-2.4193,-11.5814,0.0905,11.832
20.8280,-1.1449,-11.8342,0.5758,11.903
20.8280,-0.1461,-12.3378,1.1898,12.396
20.8290,0.8857,-12.7411,1.6468,12.878
20.8390,1.8633,-12.9965,2.0363,13.286
20.8450,3.0622,-13.2063,2.1210,13.722
20.8880,4.5206,-13.3050,2.0954,14.207
20.8900,6.3408,-13.0775,1.8364,14.649
20.8920,8.2050,-12.3145,1.7256,14.898
20.8930,9.4326,-11.0221,1.6387,14.600
20.8940,9.6791,-9.2201,1.5283,13.455
20.9080,10.1653,-7.7635,1.8364,12.922
20.9130,9.8280,-5.8395,2.0709,11.618
20.9570,9.1188,-3.9734,2.7003,10.307
20.9580,8.4193,-2.3090,3.3680,9.357
20.9590,7.5549,-0.8225,4.1556,8.661
20.9600,6.5956,0.5101,4.9135,8.240
20.9660,5.5845,1.5122,5.4836,7.971
20.9740,4.5056,2.4528,5.6831,7.656
20.9870,3.6329,3.0405,5.3901,7.176
20.9930,2.9814,3.3327,4.5211,6.359
21.0400,2.7150,3.4200,3.2604,5.450
21.0420,2.7475,3.4972,2.2365,4.978
21.0420,2.9307,3.5004,1.2822,4.742
21.0430,3.1988,3.4360,0.5199,4.723
21.0440,3.4024,3.2486,-0.2747,4.712
21.0540,3.6885,2.9046,-0.9026,4.781
21.0630,3.8872,2.5271,-1.4256,4.851
21.0730,4.0618,2.2628,-1.6737,4.942
21.0880,4.2463,1.8736,-1.6511,4.926
21.1390,4.2346,1.6181,-1.5994,4.807
21.1410,3.9189,1.3660,-1.5716,4.438
21.1420,3.6610,1.1231,-1.2838,4.039
21.1430,3.4065,1.1166,-0.8842,3.692
21.1430,3.0973,1.1776,-0.5617,3.361
21.1450,2.6656,1.5097,-0.3884,3.088
21.1540,2.4189,1.7391,-0.1467,2.983
21.1640,2.6109,1.8414,0.1074,3.197
21.1720,3.0536,1.7875,0.4137,3.562
21.1840,3.6961,1.7566,0.9746,4.207
21.1930,4.1823,1.9683,1.4071,4.832
21.2040,4.3810,2.0377,1.8438,5.172
21.2120,4.4246,1.9564,2.2821,5.349
21.2360,4.2418,2.0285,2.8980,5.523
21.2380,4.2308,2.4382,3.6777,6.113
21.2460,4.5957,3.1239,4.5214,7.164
21.2850,5.3986,3.9508,5.5262,8.677
21.2870,6.2917,4.7322,6.2810,10.071
21.2870,7.1697,5.3056,6.8592,11.252
21.2880,7.9825,5.6345,7.1905,12.131
21.2930,8.6707,5.5823,7.5982,12.809
21.3040,10.4764,4.2987,7.3228,13.485
21.3130,8.7229,5.6609,6.7273,12.385
21.3230,7.5828,6.1840,6.4399,11.714
21.3350,7.3415,6.0801,6.1678,11.354
21.3440,7.4292,5.5406,5.8024,10.934
21.3540,7.5795,4.7926,5.1610,10.347
21.3630,7.5947,4.0519,4.5280,9.726
21.3750,7.2517,3.3710,3.8158,8.861
21.4530,6.4354,2.6665,3.1738,7.655
21.4550,6.8628,1.9696,3.5969,7.995
21.4560,7.3610,1.1511,3.6323,8.289
21.4570,7.7515,0.1200,3.4883,8.501
21.4570,8.0555,-0.8200,3.6219,8.870
21.4580,8.3049,-1.5707,3.7854,9.261
21.4590,8.5081,-2.2953,3.8604,9.621
21.4600,8.8475,-2.9897,3.7045,10.047
21.4640,8.9914,-3.6179,3.3991,10.271
21.4740,8.6900,-3.9562,3.1857,10.066
21.4850,7.9233,-4.2755,2.9983,9.489
21.4930,7.1486,-4.4471,2.7675,8.862
21.5060,6.1855,-4.6866,2.5213,8.160
21.5740,5.3160,-4.9369,2.1842,7.576
21.5760,4.4279,-5.2320,1.9746,7.133
21.5770,3.5033,-5.3767,1.7936,6.663
21.5780,2.5193,-5.2046,1.7419,6.039
21.5790,1.5064,-4.9843,1.4877,5.415
21.5800,0.8909,-4.8193,1.2717,5.063
21.5800,0.3374,-4.8537,0.9110,4.950
21.5860,-0.0592,-5.0046,0.5578,5.036
21.5940,-0.4338,-5.2390,0.4338,5.275
21.6030,-0.9246,-5.4366,0.1489,5.517
21.6140,-1.2476,-5.7393,-0.1172,5.875
21.6240,-1.5797,-6.1300,-0.2284,6.334
21.6400,-1.7420,-6.6582,-0.3489,6.891
21.6500,-2.0079,-7.1105,-0.3938,7.399
21.7170,-2.4593,-7.4768,-0.4356,7.883
21.7200,-2.7551,-7.8217,-0.4501,8.305
21.7200,-3.2035,-8.0430,-0.4657,8.670
21.7210,-3.5893,-8.1942,-0.5613,8.963
21.7220,-3.8800,-8.3291,-0.6888,9.214
21.7230,-4.1039,-8.3740,-0.7838,9.358
21.7240,-4.3018,-8.3677,-1.1077,9.474
21.7250,-4.4028,-8.4562,-1.2705,9.618
21.7340,-4.4180,-8.4139,-1.3638,9.601
21.7430,-4.5398,-8.5098,-1.4552,9.754
21.7530,-4.5824,-8.6008,-1.4350,9.850
21.7640,-4.6288,-8.6082,-1.2746,9.856
21.7750,-4.6560,-8.5697,-1.1889,9.825
21.7900,-4.7522,-8.6248,-1.0406,9.902
21.7950,-4.6600,-8.6565,-0.9020,9.872
21.8650,-4.4995,-8.6981,-0.6950,9.818
21.8670,-4.3913,-8.7401,-0.5037,9.794
21.8680,-4.4024,-8.8195,-0.2331,9.860
21.8690,-4.4567,-8.8021,-0.0495,9.866
21.8700,-4.5782,-9.0152,0.0802,10.111
21.8710,-4.9728,-9.1958,0.1115,10.455
21.8710,-5.5018,-9.1659,0.4966,10.702
21.8750,-5.8138,-9.2663,0.7915,10.968
21.8840,-6.1364,-9.4867,0.9131,11.335
21.8950,-6.3384,-9.7241,0.8663,11.640
21.9040,-6.5745,-9.9837,0.7681,11.979
21.9130,-6.5435,-10.2572,0.7328,12.189
21.9270,-6.3277,-10.5548,0.5387,12.318
22.0020,-6.1426,-10.8382,0.5011,12.468
22.0050,-5.9643,-10.7518,0.3923,12.301
22.0060,-6.0098,-10.6147,0.3872,12.204