time,ax,ay,az,aT
29.6360,-6.5381,3.6165,-0.1923,7.474
29.6360,-6.6241,3.4738,-0.4990,7.496
29.6370,-6.4610,3.3404,-0.5199,7.292
29.6380,-6.3459,3.2242,-0.3994,7.129
29.6400,-6.1930,3.0775,-0.3396,6.924
29.6490,-6.0989,2.8717,-0.1877,6.744
29.6580,-5.9277,2.5472,0.0087,6.452
29.6680,-5.6486,2.1151,0.1486,6.033
29.6790,-5.3005,1.7328,0.3755,5.589
29.6880,-4.8731,1.3119,0.4830,5.070
29.7010,-4.5247,1.0335,0.7541,4.702
29.7590,-4.1931,0.9058,1.0586,4.418
29.7610,-3.8177,0.7053,1.4400,4.141
29.7620,-3.5017,0.5778,1.8186,3.988
29.7630,-3.1195,0.4790,2.1681,3.829
29.7640,-2.7798,0.2443,2.2863,3.607
29.7640,-2.4128,0.1442,2.6870,3.614
29.7690,-2.0763,-0.1101,2.9412,3.602
29.7790,-1.7795,-0.4648,3.1489,3.647
29.7880,-1.4608,-0.7948,3.3607,3.750
29.7980,-1.1575,-1.0714,3.4396,3.784
29.8090,-0.8532,-1.4365,3.3332,3.729
29.8200,-0.4120,-1.8312,3.1181,3.639
29.8350,0.0311,-2.1463,2.7675,3.502
29.9180,0.2745,-2.5650,2.2197,3.403
29.9190,0.5306,-2.8873,1.7549,3.420
29.9200,0.8494,-3.1507,1.2743,3.503
29.9210,1.2354,-3.5004,1.0443,3.856
29.9220,1.7262,-3.6928,0.7974,4.154
29.9220,2.1679,-3.8838,0.7579,4.512
29.9230,2.4919,-4.0033,0.6492,4.760
29.9240,2.8821,-4.1494,0.7081,5.101
29.9240,3.1477,-4.3407,0.7240,5.410
29.9290,3.5492,-4.3265,0.9255,5.672
29.9380,3.6852,-4.4707,0.9567,5.872
29.9480,3.7771,-4.5831,0.9545,6.015
29.9580,3.7195,-4.9356,1.1438,6.285
29.9690,3.8043,-5.2103,1.2327,6.568
29.9830,3.8721,-5.4513,1.2975,6.811
30.0670,3.9151,-5.6570,1.2170,6.986
30.0690,3.8435,-5.9353,0.9573,7.136
30.0700,3.7516,-6.2917,0.7441,7.363
30.0700,3.5264,-6.4833,0.6438,7.408
30.0710,3.4890,-6.6797,0.4349,7.549
30.0720,3.5539,-6.6717,0.2456,7.563
30.0720,3.6257,-6.6172,0.0759,7.546
30.0730,3.7575,-6.6029,-0.0265,7.597
30.0730,3.6284,-6.8723,-0.1758,7.773
30.0820,3.4140,-7.2710,-0.2787,8.037
30.0880,3.3269,-7.4854,-0.4507,8.204
30.0980,3.2622,-7.5201,-0.6750,8.225
30.1090,3.0758,-7.4792,-0.9327,8.141
30.1200,2.9418,-7.4092,-1.0945,8.047
30.1810,2.8958,-7.1704,-0.9908,7.796
30.1820,3.0626,-6.7401,-0.7291,7.439
30.1840,3.1879,-6.2976,-0.2577,7.063
30.1840,3.2671,-5.8159,0.3212,6.678
30.1850,3.2707,-5.4699,0.8644,6.432
30.1860,3.1989,-5.0464,1.3998,6.137
30.1890,3.1762,-4.6261,1.7758,5.886
30.1990,2.9637,-4.2965,2.0268,5.599
30.2080,2.5838,-4.1047,2.1698,5.313
30.2180,2.0468,-4.0183,1.9182,4.901
30.2290,1.5393,-3.9827,1.3793,4.487
30.2380,1.2316,-4.0219,0.7369,4.270
30.2500,1.1074,-3.8333,0.2392,3.997
30.2580,0.9910,-3.5042,-0.0730,3.642
30.3250,1.0181,-3.1459,-0.1600,3.310
30.3280,1.1103,-2.7060,-0.1471,2.929
30.3280,1.1451,-2.1951,-0.0019,2.476
30.3300,0.9946,-1.6386,0.1310,1.921
30.3300,0.8814,-1.0620,0.4336,1.447
30.3310,0.6148,-0.5872,0.5035,0.988
30.3320,0.2818,-0.1487,0.3879,0.502
30.3390,-0.0864,0.1959,0.2920,0.362
30.3490,-0.4160,0.3741,-0.1068,0.570
30.3580,-0.5927,0.5117,-0.4399,0.898
30.3690,-0.6483,0.5539,-0.7591,1.142
30.3830,-0.6053,0.4727,-0.8720,1.162
30.4480,-0.5231,0.3114,-0.8797,1.070
30.4500,-0.4122,0.2277,-0.9706,1.079
30.4510,-0.3296,0.0716,-1.0643,1.116
30.4520,-0.2023,-0.0014,-1.1318,1.150
30.4530,-0.1757,0.0231,-1.2003,1.213
30.4530,-0.3019,0.1169,-1.1872,1.231
30.4540,-0.5820,0.2234,-1.1207,1.282
30.4620,-0.9504,0.4533,-0.8239,1.337
30.4690,-1.1961,0.8638,-0.3743,1.522
30.4790,-1.3134,1.1811,0.1316,1.771
30.4880,-1.5131,1.3913,0.3474,2.085
30.4990,-1.8853,1.6665,0.3099,2.535
30.5080,-2.2929,1.7593,0.2348,2.900
30.5190,-2.5110,1.6695,0.0762,3.016
30.5330,-2.6236,1.5243,-0.1590,3.038
30.6080,-2.8116,1.3511,-0.4555,3.152
30.6100,-3.0317,1.3316,-0.7932,3.405
30.6120,-3.2293,1.3536,-0.9339,3.624
30.6120,-3.4292,1.4029,-1.0247,3.844
30.6130,-3.5011,1.4830,-0.8528,3.897
30.6130,-3.5541,1.6420,-0.5576,3.955
30.6140,-3.7047,1.5934,-0.2074,4.038
30.6150,-3.9009,1.5118,0.1509,4.186
30.6190,-4.2296,1.5265,0.3720,4.512
30.6280,-4.6192,1.6343,0.4911,4.924
30.6380,-5.2205,1.6123,0.3977,5.478
30.6490,-6.0235,1.4954,0.2097,6.210
30.6580,-6.5280,1.3235,0.0196,6.661
30.6720,-6.8819,1.1360,-0.1464,6.977
30.7770,-7.0112,1.0462,-0.1762,7.091
30.7800,-7.0146,1.1137,0.0843,7.103
30.7800,-6.8531,1.2239,0.3260,6.969
30.7810,-6.4137,1.7235,0.6706,6.675
30.7820,-5.8310,2.6519,1.0002,6.483
30.7820,-5.5932,3.6218,1.2110,6.773
30.7830,-5.9721,4.1399,1.1142,7.352
30.7840,-6.8779,4.2425,0.7145,8.113
30.7840,-7.7077,4.1897,0.0962,8.773
30.7850,-8.0987,4.0846,-0.4326,9.081
30.7850,-8.2255,4.0017,-0.5736,9.165
30.7890,-7.8136,3.7965,-0.6299,8.710
30.8010,-7.1389,3.2969,-0.6015,7.886
30.8080,-6.5324,2.6698,-0.6229,7.084
30.8180,-6.0508,2.1640,-0.7034,6.465
30.8920,-5.5781,1.6227,-0.5250,5.833
30.8940,-5.0248,1.3090,-0.2013,5.196
30.8950,-4.5244,1.0625,0.1513,4.650
30.8960,-4.1595,0.8504,0.6740,4.299
30.8970,-3.9365,0.7936,1.0284,4.145
30.8970,-3.7736,0.8393,1.1931,4.046
30.8980,-3.5463,0.6947,1.4015,3.876
30.8990,-3.2437,0.4735,1.5282,3.617
30.9080,-2.7685,0.2540,1.7616,3.291
30.9180,-2.3656,-0.1979,2.0305,3.124
30.9350,-1.8656,-0.5062,2.3236,3.023
30.9380,-1.4424,-0.9032,2.7527,3.236
31.0100,-1.0397,-1.1973,3.1820,3.555
31.0120,-0.7077,-1.4444,3.4388,3.796
31.0130,-0.4508,-1.7235,3.5895,4.007
31.0140,-0.2303,-2.0078,3.5420,4.078
31.0140,0.0087,-2.2778,3.2429,3.963
31.0150,0.3317,-2.4726,2.6712,3.655
31.0160,0.6409,-2.7676,2.0571,3.507
31.0180,0.9947,-2.9189,1.6375,3.492
31.0280,1.3143,-3.1356,1.2585,3.625
31.0380,1.7883,-3.3896,0.9960,3.960
31.0480,2.2458,-3.6742,0.8347,4.386
31.0590,2.6834,-3.8188,0.5909,4.705
31.0690,3.0912,-3.9078,0.3926,4.998
31.1770,3.4068,-4.0345,0.2834,5.288
31.1780,3.6857,-4.0742,0.4489,5.512
31.1790,4.0570,-4.0672,0.5536,5.771
31.1800,4.0473,-4.1235,0.6059,5.810
31.1810,4.0293,-4.2901,0.7110,5.928
31.1820,3.9585,-4.4609,0.7720,6.014
31.1830,3.9342,-4.6633,0.8029,6.154
31.1830,3.9342,-4.8718,0.7595,6.308
31.1840,3.8964,-5.1482,0.6414,6.488
31.1840,3.8497,-5.4045,0.5057,6.655
31.1850,3.7520,-5.7445,0.4239,6.874
31.1900,3.7177,-5.9530,0.3335,7.026
31.1990,3.6945,-6.2210,0.2909,7.241
31.2100,3.8363,-6.3919,0.2577,7.459
31.2220,3.9557,-6.4325,0.2532,7.556
31.2940,3.7391,-6.4463,0.3424,7.460
31.2960,3.2609,-6.7293,0.2331,7.481
31.2970,2.9861,-6.7688,-0.1441,7.400
31.2970,2.7472,-6.5276,-0.7042,7.117
31.2980,2.5493,-6.3542,-1.3689,6.982
31.2990,2.3998,-6.3093,-1.8464,6.998
31.2990,2.4443,-6.3936,-2.0400,7.142
31.3020,2.8594,-6.3809,-1.8454,7.232
31.3080,3.2611,-6.1495,-1.2282,7.068
31.3180,3.4584,-5.6806,-0.3402,6.659
31.3280,3.6034,-5.2759,0.5683,6.414
31.3380,3.4610,-4.9250,1.3763,6.175
31.3500,3.0362,-4.6432,1.9807,5.891
31.3580,2.5724,-4.4369,2.3639,5.647
31.4230,2.1285,-4.3540,2.5453,5.474
31.4250,1.8105,-4.3101,2.4883,5.296
31.4250,1.3986,-4.2216,1.9817,4.869
31.4270,1.1823,-4.1502,1.1858,4.475
31.4280,0.9319,-3.8885,0.5963,4.043
31.4300,0.9607,-3.6367,0.1252,3.764
31.4300,1.0316,-3.1787,0.0184,3.342
31.4390,1.1145,-2.6806,0.0474,2.903
31.4480,1.1754,-2.1094,0.1156,2.418
31.4590,1.0116,-1.4756,0.2223,1.803
31.4680,0.8143,-0.8323,0.2084,1.183
31.4850,0.5172,-0.3107,0.1604,0.624
31.4950,0.2018,0.0745,-0.0119,0.215
31.5630,-0.1592,0.3937,-0.2158,0.476
31.5650,-0.3915,0.5859,-0.4463,0.834
31.5670,-0.4632,0.5558,-0.6990,1.006
31.5680,-0.3210,0.3872,-0.7096,0.870
31.5690,-0.0038,0.0700,-0.7112,0.715
31.5700,0.2271,-0.3065,-0.6280,0.735
31.5710,0.3423,-0.6239,-0.4080,0.820
31.5740,0.4461,-0.6790,-0.1629,0.829
31.5830,0.3211,-0.7180,0.2160,0.816
31.5890,0.0618,-0.6960,0.6215,0.935
31.5990,-0.2123,-0.4924,0.8349,0.992
31.6080,-0.6161,-0.2461,0.8872,1.108
31.6180,-1.0437,-0.0061,0.7838,1.305
31.6340,-1.4162,0.3391,0.6984,1.615
31.6420,-1.6561,0.6301,0.5564,1.857
31.7080,-1.8392,0.9326,0.4886,2.119
31.7110,-1.9558,1.1506,0.4569,2.315
31.7130,-2.1613,1.1528,0.3703,2.477
31.7140,-2.3256,1.2450,0.0896,2.639
31.7150,-2.5539,1.2259,-0.2606,2.845
31.7160,-2.8634,1.1506,-0.5480,3.134
31.7160,-3.1890,1.0253,-0.7232,3.427
31.7190,-3.4846,1.0534,-0.8615,3.741
31.7290,-3.7402,1.1436,-0.9049,4.014
31.7380,-3.9453,1.2373,-0.8840,4.228
31.7490,-4.0642,1.4059,-0.7700,4.369
31.7570,-4.2161,1.4903,-0.5455,4.505
31.7680,-4.5482,1.3750,-0.3025,4.761
31.8390,-4.7159,1.4055,-0.1633,4.924
31.8400,-4.7957,1.5824,-0.2307,5.055
31.8410,-4.9492,1.8087,-0.3894,5.284
31.8420,-5.4926,1.8837,-0.8291,5.865
31.8420,-6.2867,1.6389,-1.2300,6.612
31.8430,-6.7653,1.4948,-1.4975,7.088
31.8430,-6.8236,1.6735,-1.6233,7.211
31.8500,-6.7148,1.8638,-1.6203,7.155
31.8580,-6.7094,1.9716,-1.4836,7.149
31.8680,-6.7015,2.1741,-1.0796,7.128
31.8790,-6.3907,2.6304,-0.6403,6.940
31.8870,-5.8994,3.3115,-0.1898,6.768
31.8990,-5.6560,3.8650,0.0284,6.851
31.9070,-6.1106,3.9992,-0.3192,7.310
31.9200,-6.7293,3.7561,-0.7487,7.743
31.9960,-7.2197,3.5292,-1.1342,8.116
31.9990,-7.3686,3.5418,-1.1972,8.263
32.0000,-7.2941,3.4858,-1.1209,8.162
32.0000,-7.1936,3.3143,-0.9016,7.972
32.0010,-6.9706,3.0597,-0.6742,7.642
32.0020,-6.7173,2.6550,-0.4920,7.240
32.0030,-6.3635,2.3256,-0.2732,6.781
32.0040,-6.0216,1.9520,-0.0556,6.330
32.0080,-5.6873,1.6678,0.3435,5.937
32.0180,-5.2801,1.4520,0.7581,5.528
32.0270,-4.9922,1.3673,1.1386,5.300
32.0370,-4.8475,1.3699,1.7090,5.319
32.0510,-4.7666,1.3278,2.1818,5.408
32.0590,-4.5475,1.2174,2.6323,5.394
32.1230,-4.2426,1.1916,2.7888,5.215
32.1250,-3.8271,1.1535,2.8415,4.904
32.1260,-3.2036,0.7405,2.8648,4.361
32.1270,-2.6848,0.0903,2.9598,3.997
32.1300,-2.4260,-0.4615,3.2958,4.118
32.1310,-2.0074,-0.8554,3.5843,4.196
32.1320,-1.6630,-1.2971,3.8164,4.360
32.1390,-1.3398,-1.7187,3.7054,4.299
32.1500,-1.1358,-2.0169,3.2896,4.022
32.1580,-0.9289,-2.3109,2.7254,3.692
32.1690,-0.5490,-2.5694,2.2480,3.458
32.1770,-0.0994,-2.7938,1.8223,3.337
32.1910,0.3262,-3.1374,1.5339,3.508
32.2740,0.7735,-3.2980,1.4078,3.668
32.2750,1.2413,-3.5081,1.3203,3.948
32.2770,1.7523,-3.6884,1.1667,4.247
32.2770,2.0714,-3.8081,1.2626,4.515
32.2790,2.4441,-3.9492,1.3146,4.827
32.2810,2.8493,-3.9433,1.2606,5.026
32.2820,3.0764,-4.0806,1.3025,5.274
32.2820,3.2138,-4.2784,1.2013,5.484
32.2830,3.3488,-4.4428,1.2210,5.696
32.2900,3.2743,-4.7274,1.1718,5.869
32.2990,3.2775,-5.0818,1.1788,6.161
32.3090,3.2370,-5.3261,1.2594,6.359
32.3190,3.4292,-5.6930,1.1450,6.744
32.3280,3.4876,-5.9437,1.1502,6.987
32.3390,3.5163,-6.1728,1.0275,7.178
32.4160,3.4720,-6.3206,1.0424,7.286
32.4180,3.4897,-6.4849,1.0189,7.434
32.4190,3.5166,-6.4873,0.9914,7.445
32.4200,3.4292,-6.6395,1.0024,7.540
32.4200,3.3521,-6.8023,0.9220,7.639
32.4210,3.2287,-7.1115,0.8027,7.851
32.4210,3.2361,-7.4174,0.6974,8.123
32.4220,3.2670,-7.4069,0.6456,8.121
32.4310,3.1900,-7.4777,0.6996,8.160
32.4390,2.9862,-7.6057,0.5423,8.189
32.4480,3.0819,-7.6000,0.2778,8.206
32.4580,3.4246,-7.3281,0.1649,8.090
32.4680,3.8659,-6.8725,0.3525,7.893
32.4780,4.2835,-6.3761,0.6074,7.705
32.5540,4.6220,-5.7328,1.0514,7.439
32.5550,4.5217,-5.1933,1.4168,7.030
32.5560,4.3411,-4.7913,1.6362,6.669
32.5570,3.8611,-4.6745,1.6879,6.293
32.5580,3.4494,-4.5276,1.5536,5.900
32.5590,3.1461,-4.4705,1.2096,5.599
32.5600,2.9834,-4.3272,0.7720,5.312
32.5600,2.7978,-4.3632,0.3886,5.198
32.5700,2.6123,-4.3959,-0.0243,5.114
32.5800,2.5653,-4.2654,-0.3829,4.992
32.5870,2.5165,-4.0825,-0.6505,4.840
32.6020,2.5505,-3.7222,-0.8508,4.592
32.6090,2.5363,-3.3047,-0.8844,4.259
32.6740,2.2094,-2.7622,-0.6853,3.603
32.6760,1.8254,-2.1786,-0.4924,2.885
32.6770,1.3762,-1.6154,-0.2254,2.134
32.6780,1.1210,-1.1566,-0.0770,1.613
32.6800,0.6644,-0.8299,-0.1015,1.068
32.6810,0.3526,-0.5558,-0.1203,0.669
32.6820,0.0152,-0.3745,-0.3380,0.505
32.6890,-0.1492,-0.3228,-0.6019,0.699
32.6980,-0.1352,-0.4004,-0.7740,0.882
32.7090,-0.0135,-0.5456,-0.9792,1.121
32.7180,0.0076,-0.7921,-1.2460,1.477
32.7280,0.1280,-0.9612,-1.3043,1.625
32.7400,0.2310,-0.9791,-1.3235,1.662
32.8120,0.1651,-1.0003,-1.0900,1.489
32.8140,-0.1576,-0.9851,-0.8899,1.337
32.8150,-0.8151,-0.7508,-0.5315,1.229
32.8160,-1.3987,-0.4338,-0.1114,1.469
32.8170,-1.8875,-0.1561,-0.0385,1.894
32.8170,-2.3481,0.2686,0.2026,2.372
32.8180,-2.6904,0.5638,0.3799,2.775
32.8190,-2.9244,0.9508,0.5484,3.124
32.8280,-3.1996,1.3208,0.5089,3.499
32.8380,-3.4533,1.5406,0.4127,3.804
32.8480,-3.6696,1.7528,0.2076,4.072
32.8580,-3.9363,1.8826,-0.0530,4.364
32.8700,-4.2104,2.0018,-0.3001,4.672
32.8790,-4.3110,2.1230,-0.5438,4.836
32.8900,-4.4725,2.2732,-0.7037,5.066
32.9700,-4.4952,2.3268,-0.9768,5.155
32.9730,-4.5913,2.4467,-1.1143,5.321
32.9740,-4.6442,2.4789,-1.2104,5.402
32.9750,-4.6882,2.5870,-1.1931,5.486
32.9770,-4.8341,2.6952,-1.4411,5.719
32.9780,-4.9915,2.7849,-1.5467,5.921
32.9790,-5.4290,2.9042,-1.5850,6.358
32.9800,-5.6630,3.1062,-1.5225,6.636
32.9830,-6.1006,3.2063,-1.7178,7.103
32.9910,-7.1211,2.7888,-2.0456,7.917
32.9980,-7.9844,2.2304,-2.1815,8.572
33.0080,-8.5408,1.6763,-2.2076,8.979
33.0220,-8.5394,1.4655,-1.9072,8.872
33.1070,-8.5192,1.1259,-1.5695,8.735
33.1090,-8.4982,0.8464,-1.0743,8.608
33.1100,-7.8659,1.3183,-0.2485,7.979
33.1110,-7.1013,2.1973,0.6932,7.466
33.1110,-6.7226,2.9106,1.3363,7.446
33.1120,-6.9758,3.4940,1.4518,7.936
33.1130,-7.5184,3.7844,1.1415,8.494
33.1150,-8.0858,3.7878,0.4713,8.941
33.1150,-8.2926,3.7145,0.0001,9.086
33.1180,-8.1096,3.6798,-0.1443,8.907
33.1280,-7.8095,3.4521,-0.0398,8.539
33.1370,-7.3208,2.8609,-0.1464,7.861
33.1490,-6.9062,2.1437,-0.0906,7.232
33.1570,-6.4795,1.4437,-0.0635,6.639
33.1700,-6.0382,0.9059,0.1148,6.107
33.1770,-5.5893,0.3996,0.5111,5.627
33.2420,-5.0350,-0.0216,0.6974,5.083
33.2440,-4.6802,-0.3847,1.0604,4.814
33.2450,-4.2937,-0.5535,1.4650,4.570
33.2480,-3.9898,-0.5476,1.9438,4.472
33.2480,-3.7113,-0.4912,2.2881,4.388
33.2490,-3.4332,-0.4519,2.3996,4.213
33.2500,-3.1594,-0.5744,2.1483,3.864
33.2580,-2.7712,-0.9980,2.0343,3.580
33.2680,-2.3485,-1.3944,1.9996,3.385
33.2830,-1.8650,-1.8013,2.2226,3.415
33.2940,-1.2925,-2.1287,2.5903,3.593
33.3100,-0.8833,-2.3622,2.8535,3.808
33.4330,-0.4470,-2.6277,2.9733,3.993
33.4350,-0.1067,-3.0248,2.8667,4.169
33.4360,0.2419,-3.3023,2.6624,4.249
33.4370,0.5854,-3.5001,2.4097,4.290
33.4380,1.0091,-3.6724,2.1554,4.376
33.4380,1.5117,-3.7819,1.9739,4.526
33.4400,1.9444,-3.8624,1.7917,4.681
33.4410,2.2725,-3.9316,1.6616,4.836
33.4410,2.5776,-4.1032,1.4311,5.053
33.4420,2.6951,-4.2397,1.3620,5.205
33.4430,3.0031,-4.3104,1.3375,5.421
33.4440,3.3221,-4.3105,1.1806,5.569
33.4450,3.5006,-4.3121,1.2294,5.689
33.4470,3.6766,-4.4776,1.1387,5.905
33.4500,3.8157,-4.6158,1.1203,6.093
33.4580,3.8083,-4.7983,0.9102,6.193
33.4700,3.7326,-5.2817,0.8375,6.521
33.4780,3.7697,-5.5554,0.6451,6.745
33.5670,3.9366,-5.7556,0.5513,6.995
33.5690,4.0368,-5.9746,0.4632,7.225
33.5700,4.1471,-6.1572,0.3321,7.431
33.5710,4.1531,-6.3314,0.3543,7.580
33.5720,4.2176,-6.4716,0.4581,7.738
33.5730,4.2789,-6.5210,0.5623,7.820
33.5740,4.2655,-6.4927,0.6716,7.797
33.5750,4.1681,-6.5203,0.8423,7.784
33.5750,3.8323,-6.6686,0.6783,7.721
33.5820,3.6574,-6.8444,0.3163,7.767
33.5890,3.5958,-6.7084,0.0813,7.612