time,ax,ay,az,aT
9.6060,-6.7044,3.3658,2.7799,8.000
9.6110,-6.3634,2.7264,3.5793,7.793
9.6220,-5.8673,2.1454,3.9873,7.411
9.6340,-5.5494,1.6463,4.0042,7.038
9.6420,-5.4758,1.2672,3.6935,6.725
9.6520,-5.3030,0.9332,3.4210,6.379
9.6640,-5.0830,0.6749,2.9588,5.920
9.6720,-4.8377,0.5169,2.5759,5.505
9.6830,-4.6203,0.3769,2.2147,5.138
9.6920,-4.4592,0.0224,1.8012,4.809
9.7030,-4.3707,-0.3117,1.4506,4.616
9.7120,-3.9783,-0.7100,1.3482,4.260
9.7240,-3.5723,-1.1118,1.1356,3.910
9.7520,-3.0709,-1.4517,1.0671,3.560
9.7540,-2.7842,-1.8381,1.0114,3.486
9.7550,-2.4006,-2.2555,0.7837,3.386
9.7620,-2.1545,-2.6377,0.3919,3.428
9.7720,-1.8822,-2.9967,-0.0285,3.539
9.7820,-1.5018,-3.2473,-0.4974,3.612
9.7910,-1.0323,-3.4566,-0.4941,3.641
9.8040,-0.7189,-3.5773,-0.3624,3.667
9.8120,-0.3995,-3.6668,-0.4174,3.712
9.8220,-0.2368,-3.8235,-0.6269,3.882
9.8320,0.0350,-3.9522,-0.7758,4.028
9.8420,0.3838,-4.0946,-0.7953,4.189
9.8560,0.6796,-4.2449,-0.8450,4.381
9.8610,1.0154,-4.5208,-0.8432,4.710
9.8840,1.4003,-4.7696,-0.8461,5.042
9.8860,1.7197,-4.9105,-0.8473,5.271
9.8920,1.9263,-5.0340,-1.0248,5.487
9.9030,1.9872,-5.2222,-1.2013,5.715
9.9110,2.0661,-5.3798,-1.5426,5.966
9.9220,2.1063,-5.5679,-1.7691,6.210
9.9340,2.1325,-5.7174,-1.9621,6.410
9.9420,2.3273,-5.9068,-2.0115,6.660
9.9540,2.4810,-6.0737,-2.0261,6.867
9.9620,2.6125,-6.2455,-1.8848,7.027
9.9720,2.8095,-6.5026,-1.8451,7.320
9.9820,3.0532,-6.6883,-1.6847,7.543
9.9920,3.1622,-6.7343,-1.6258,7.615
10.0140,3.1328,-6.7095,-1.7301,7.604
10.0170,3.1231,-6.7143,-1.9245,7.651
10.0250,2.9998,-6.8259,-2.3402,7.815
10.0350,2.7775,-6.9167,-2.7745,7.953
10.0410,2.5046,-7.2601,-3.1531,8.302
10.0530,2.5649,-7.4393,-3.4213,8.581
10.0620,2.8626,-7.4366,-3.7793,8.819
10.0720,3.1290,-7.5382,-3.9617,9.073
10.0840,3.2945,-7.8303,-4.0785,9.423
10.0920,3.3358,-8.0376,-4.1427,9.638
10.1040,3.4937,-8.2406,-4.2361,9.902
10.1120,3.6281,-8.2508,-4.2334,9.958
10.1230,3.6709,-8.2554,-4.0167,9.887
10.1390,3.6693,-8.0315,-3.7265,9.584
10.1450,3.5840,-7.4562,-3.4027,8.945
10.1660,3.5184,-6.7783,-2.8887,8.165
10.1690,3.3714,-6.2975,-2.3987,7.535
10.1720,3.1646,-5.9208,-2.0389,7.016
10.1840,2.8690,-5.6943,-1.5023,6.551
10.1920,2.5177,-5.6841,-0.9251,6.285
10.2040,2.1470,-5.7165,-0.4663,6.124
10.2120,1.7913,-5.9500,-0.1205,6.215
10.2220,1.5211,-6.1387,0.0348,6.324
10.2320,1.1493,-6.2564,0.2709,6.367
10.2420,0.8665,-6.1831,0.5101,6.264
10.2550,0.5101,-6.0567,0.7115,6.120
10.2620,0.1589,-5.5938,0.7829,5.651
10.2740,-0.2434,-5.0505,0.8718,5.131
10.2820,-0.5411,-4.4375,0.9854,4.578
10.3030,-0.8569,-3.6374,1.1414,3.907
10.3070,-1.1036,-2.9456,1.3233,3.413
10.3140,-1.3303,-2.2217,1.3316,2.912
10.3210,-1.4040,-1.8226,1.2927,2.639
10.3330,-1.5587,-1.3872,1.1049,2.361
10.3420,-1.6437,-1.1537,0.7803,2.154
10.3520,-1.8428,-1.0918,0.5602,2.214
10.3620,-1.8324,-1.1839,0.4423,2.226
10.3720,-1.7134,-1.4323,0.3696,2.264
10.3820,-1.4128,-1.5490,0.4612,2.147
10.3920,-1.1919,-1.8053,0.4957,2.219
10.4030,-1.1458,-1.8515,0.5808,2.254
10.4120,-1.2070,-1.7462,0.7986,2.268
10.4220,-1.2626,-1.5240,1.0984,2.263
10.4310,-1.3517,-1.2645,1.4420,2.346
10.4480,-1.4224,-1.0682,1.7309,2.482
10.4530,-1.5318,-0.6462,2.0099,2.608
10.4620,-1.6255,-0.1898,2.1022,2.664
10.4720,-1.7850,0.2124,2.1021,2.766
10.4810,-1.8641,0.5259,2.0731,2.837
10.4910,-1.8578,0.7452,1.7482,2.658
10.5040,-1.9198,0.8455,1.5450,2.605
10.5110,-1.9843,0.9980,1.4353,2.645
10.5220,-2.0101,1.1892,1.2474,2.648
10.5310,-2.1050,1.3840,1.0968,2.748
10.5410,-2.3263,1.3906,1.0657,2.912
10.5630,-2.8229,1.5155,0.9879,3.353
10.5650,-3.2293,1.5078,0.9500,3.688
10.5950,-3.6000,1.6237,0.7308,4.016
10.5970,-3.9818,1.7424,0.6459,4.394
10.6010,-4.1674,1.9389,0.6286,4.639
10.6080,-4.3015,1.9797,0.4640,4.758
10.6120,-4.5134,2.1569,0.4450,5.022
10.6230,-4.7733,2.2965,0.3716,5.310
10.6340,-5.0325,2.3070,0.2724,5.543
10.6420,-5.5508,2.4716,0.0907,6.077
10.6510,-6.0656,2.6475,0.0376,6.618
10.6610,-6.6396,3.0407,0.1332,7.304
10.6730,-7.1668,3.3352,0.2127,7.908
10.6810,-7.6521,3.6141,0.0482,8.463
10.6910,-8.1282,3.8818,0.0619,9.008
10.7050,-8.2017,4.2780,0.1877,9.252
10.7110,-8.1977,4.7309,0.2056,9.467
10.7260,-8.3644,4.9965,0.3122,9.748
10.7310,-8.4890,5.0878,0.5228,9.911
10.7420,-8.4474,5.2899,1.1667,10.035
10.7540,-8.1160,5.6525,1.8574,10.063
10.7610,-7.6818,6.3170,2.3995,10.231
10.7720,-7.1938,6.9125,2.7628,10.352
10.7810,-7.2365,7.4641,2.7710,10.759
10.7910,-7.4057,7.6498,2.3561,10.905
10.8010,-7.6183,7.3522,1.7847,10.737
10.8110,-7.6804,6.8168,1.3199,10.354
10.8220,-7.5079,6.3059,0.9256,9.848
10.8310,-7.3823,5.6352,0.5800,9.305
10.8500,-7.1439,4.7935,0.1993,8.605
10.8530,-6.9450,3.9557,-0.0791,7.993
10.8610,-6.8732,3.0826,-0.0263,7.533
10.8720,-7.0015,2.2541,0.2705,7.360
10.8810,-7.3270,1.3275,0.4514,7.460
10.8910,-7.4280,0.4508,0.5815,7.464
10.9010,-7.3934,-0.2985,0.8284,7.446
10.9110,-7.4063,-0.9393,1.0475,7.539
10.9210,-7.3397,-1.6615,1.4619,7.666
10.9340,-6.7757,-2.1374,1.8153,7.333
10.9410,-6.1784,-2.3431,2.2561,6.982
10.9510,-5.6749,-2.3536,2.2492,6.542
10.9610,-4.9925,-2.4129,1.9605,5.881
10.9720,-4.2131,-2.5938,1.9101,5.303
10.9810,-3.5119,-2.9240,2.0103,4.992
10.9980,-2.9560,-3.2705,2.1330,4.897
11.0020,-2.6834,-3.5584,2.3557,5.041
11.0140,-2.5832,-3.9085,2.3145,5.225
11.0370,-2.4520,-4.4014,2.2169,5.504
11.0390,-2.4301,-4.7517,2.0088,5.703
11.0430,-2.1731,-5.1846,1.7910,5.900
11.0530,-1.8574,-5.6228,1.5538,6.122
11.0610,-1.5052,-6.0108,1.1493,6.302
11.0710,-1.1089,-6.3225,0.8521,6.475
11.0820,-0.5692,-6.6153,0.5262,6.661
11.0920,-0.0238,-6.9385,0.3096,6.945
11.1040,0.5952,-7.1957,0.1149,7.221
11.1110,1.1716,-7.3115,0.0227,7.405
11.1300,1.7149,-7.4659,-0.0532,7.660
11.1310,2.1357,-7.6301,-0.1457,7.925
11.1500,2.5489,-7.8254,-0.1758,8.232
11.1510,2.8746,-7.9348,-0.1794,8.441
11.1610,3.1666,-8.1328,-0.2084,8.730
11.1720,3.4129,-8.3772,-0.3992,9.055
11.1810,3.5242,-8.4354,-0.5791,9.160
11.1920,3.8236,-8.3887,-0.6608,9.243
11.2020,4.0000,-8.2989,-0.7887,9.246
11.2120,4.0746,-8.2360,-0.7146,9.217
11.2220,4.0383,-8.2188,-0.7200,9.186
11.2310,3.9872,-8.2632,-0.6731,9.200
11.2420,3.8794,-8.2158,-0.7913,9.120
11.2560,3.9393,-8.2209,-0.9946,9.170
11.2910,4.0443,-8.4077,-1.2218,9.410
11.2930,4.2178,-8.6130,-1.3072,9.679
11.2940,4.4617,-8.7992,-1.6180,9.998
11.2950,4.7150,-9.0597,-2.1430,10.436
11.3040,4.6205,-9.3717,-2.6991,10.792
11.3120,4.5334,-9.7573,-3.1713,11.217
11.3220,4.5265,-9.9085,-3.6026,11.474
11.3310,4.3801,-9.9763,-3.9889,11.603
11.3420,4.1908,-9.8476,-4.3299,11.545
11.3540,3.8943,-9.7802,-4.6801,11.520
11.3610,3.7539,-9.6672,-4.8992,11.469
11.3730,3.8009,-9.6270,-4.7316,11.380
11.3810,4.0117,-9.4425,-4.1363,11.062
11.3920,4.1394,-8.9127,-3.4503,10.415
11.4050,4.0505,-8.5597,-2.5126,9.797
11.4130,3.7406,-8.1068,-1.6112,9.072
11.4370,3.0322,-7.6850,-0.8234,8.303
11.4380,1.7164,-7.1726,-0.2267,7.379
11.4420,0.3396,-6.7342,0.0013,6.743
11.4540,-1.0514,-6.3266,0.0581,6.414
11.4620,-2.1854,-6.1737,-0.1062,6.550
11.4710,-2.7601,-6.2946,-0.5651,6.896
11.4810,-2.7888,-6.3953,-1.2404,7.086
11.4920,-2.4383,-6.4149,-1.6322,7.054
11.5030,-1.8373,-6.0769,-1.6333,6.555
11.5110,-1.2307,-5.4926,-1.4310,5.808
11.5240,-1.1473,-4.7323,-0.8625,4.945
11.5310,-1.1272,-3.8975,-0.0968,4.058
11.5540,-1.0943,-3.0598,0.4248,3.277
11.5560,-1.2733,-2.2887,0.9726,2.794
11.5610,-1.7004,-1.5681,1.1063,2.564
11.5720,-2.2947,-0.9088,1.2332,2.759
11.5810,-2.7707,-0.3809,1.1938,3.041
11.5910,-3.0489,-0.0392,1.1316,3.252
11.6040,-3.1042,-0.0434,1.0997,3.294
11.6110,-2.8616,-0.2614,1.0116,3.046
11.6220,-2.2885,-0.6831,0.9184,2.559
11.6310,-1.7113,-1.0791,0.8315,2.187
11.6420,-1.3509,-1.4606,0.8203,2.152
11.6630,-1.1401,-1.8123,0.7343,2.264
11.6640,-1.1020,-1.8876,0.5894,2.264
11.6930,-1.3604,-1.7380,0.7663,2.336
11.6950,-1.7960,-1.2712,1.1046,2.462
11.6960,-2.2957,-0.7093,1.4176,2.790
11.7070,-2.8758,-0.1285,1.5244,3.257
11.7140,-3.2665,0.4581,1.5461,3.643
11.7220,-3.3270,0.9976,1.5227,3.792
11.7320,-3.2261,1.2635,1.4296,3.748
11.7420,-3.0931,1.4734,1.2794,3.657
11.7530,-2.9543,1.4378,1.1877,3.494
11.7620,-2.9444,1.5616,0.9457,3.464
11.7730,-3.0485,1.5517,0.7315,3.498
11.7820,-3.0854,1.5146,0.6508,3.498
11.7920,-3.1280,1.6000,0.6225,3.568
11.8260,-3.1832,1.8724,0.6892,3.757
11.8280,-3.2462,2.1264,0.9365,3.992
11.8290,-3.3587,2.3513,1.0568,4.234
11.8410,-3.4693,2.6922,1.0975,4.526
11.8430,-3.6203,2.8606,1.0261,4.727
11.8530,-3.8499,3.1387,0.8541,5.040
11.8610,-4.0375,3.2376,0.7322,5.227
11.8720,-4.2735,3.3292,0.5901,5.449
11.8810,-4.4623,3.2695,0.4910,5.554
11.8920,-4.6007,3.1993,0.4358,5.621
11.9020,-4.8622,3.2249,0.5451,5.860
11.9110,-5.2871,3.1273,0.7387,6.187
11.9230,-5.8112,2.8576,1.0919,6.567
11.9320,-6.2272,2.8832,1.3363,6.991
11.9430,-6.4318,3.0048,1.7176,7.304
11.9700,-6.6310,3.3878,2.0229,7.716
11.9720,-6.7417,3.9047,2.3326,8.133
11.9740,-6.7905,4.4017,2.6054,8.501
11.9810,-6.8014,4.8721,2.8849,8.850
11.9920,-6.9495,5.2232,2.7972,9.132
12.0040,-7.2972,5.4807,2.6319,9.498
12.0110,-7.6139,5.4910,2.0968,9.619
12.0220,-8.0119,5.4474,1.3847,9.787
12.0310,-8.3983,5.3648,0.6167,9.985
12.0410,-8.4843,5.2308,0.0408,9.967
12.0510,-8.4565,4.9043,-0.4229,9.785
12.0610,-8.3215,4.4752,-0.7723,9.480
12.0740,-8.2118,4.0541,-0.8007,9.193
12.0810,-8.0863,3.5510,-0.5346,8.848
12.0950,-7.9669,2.7368,-0.0256,8.424
12.1090,-7.7638,2.0376,0.4472,8.039
12.1130,-7.5950,1.3064,1.0686,7.780
12.1220,-7.4770,0.6930,1.6433,7.687
12.1310,-7.1855,0.1978,2.3480,7.562
12.1410,-6.6896,-0.2057,3.0010,7.335
12.1510,-6.2065,-0.5679,3.4765,7.136
12.1610,-5.9456,-0.8477,3.7288,7.069
12.1720,-5.6362,-1.0782,3.6616,6.807
12.1810,-5.3239,-1.5467,3.5679,6.593
12.1910,-4.8700,-1.9978,3.4927,6.317
12.2060,-4.5166,-2.5499,3.6258,6.328
12.2110,-4.2632,-3.1478,3.6277,6.422
12.2310,-4.0039,-3.8628,3.3981,6.519
12.2350,-3.7156,-4.5494,3.0688,6.627
12.2420,-3.3065,-5.2883,2.7444,6.814
12.2520,-2.9505,-5.7321,2.1988,6.812
12.2610,-2.4475,-6.1571,1.6898,6.838
12.2710,-1.8855,-6.4511,1.0901,6.809
12.2810,-1.4100,-6.7068,0.4369,6.867
12.2910,-0.8158,-6.9236,0.0015,6.971
12.3020,-0.2802,-7.1081,-0.4055,7.125
12.3110,0.4143,-7.3382,-0.6832,7.382
12.3210,1.1645,-7.3922,-0.9611,7.545
12.3310,1.9899,-7.4077,-0.9818,7.733
12.3410,2.7804,-7.4705,-1.0916,8.046
12.3530,3.3991,-7.4140,-0.9446,8.211
12.3660,3.8958,-7.4161,-0.7592,8.411
12.3820,4.2297,-7.4053,-0.4740,8.541
12.3840,4.4513,-7.4589,-0.4262,8.697
12.3910,4.3714,-7.2586,-0.4203,8.484
12.4020,4.0010,-7.2959,-0.3372,8.328
12.4110,3.6429,-7.3775,-0.3045,8.234
12.4210,3.5994,-7.4632,-0.3572,8.294
12.4310,3.4398,-7.5522,-0.2570,8.303
12.4410,3.1330,-7.6037,-0.1852,8.226
12.4540,2.7977,-7.7984,-0.1674,8.287
12.4610,2.5976,-8.1395,-0.3462,8.551
12.4720,2.6721,-8.2780,-0.6053,8.720
12.4800,2.8774,-8.5513,-0.8448,9.062
12.4920,3.1572,-8.8125,-0.8572,9.400
12.5180,3.4026,-8.9103,-0.7751,9.569
12.5200,3.6333,-9.0977,-0.8715,9.835
12.5220,3.5734,-9.4510,-1.1149,10.165
12.5320,3.6422,-9.7080,-1.2594,10.445
12.5420,4.0439,-9.4247,-1.5010,10.365
12.5530,4.3622,-8.9872,-1.8139,10.153
12.5610,4.1205,-8.8251,-2.1550,9.975
12.5720,3.6645,-8.8276,-2.5475,9.892
12.5840,3.5493,-8.5733,-2.8220,9.699
12.5920,3.6715,-8.1890,-2.9771,9.455
12.6010,3.7679,-7.7443,-2.9100,9.091
12.6120,3.7561,-7.6189,-2.7298,8.922
12.6210,3.5876,-7.5242,-2.3342,8.656
12.6310,3.2798,-7.4938,-2.0881,8.442
12.6420,3.0676,-7.4688,-1.7679,8.266
12.6630,2.7678,-7.4183,-1.4161,8.043
12.6650,2.3789,-7.5117,-1.0583,7.950
12.6770,1.9481,-7.6724,-0.5269,7.933
12.6820,1.3354,-7.7557,-0.0995,7.870
12.6910,0.7791,-7.9392,0.0134,7.977
12.7020,0.1967,-7.8151,0.2865,7.823
12.7110,-0.2219,-7.5856,0.4054,7.600
12.7210,-0.6167,-7.1889,0.4104,7.227
12.7310,-1.0854,-6.6804,0.3471,6.777
12.7410,-1.2556,-5.9762,0.3734,6.118
12.7520,-1.5446,-5.0944,0.2494,5.329
12.7610,-1.7569,-4.1965,-0.0361,4.550
12.7750,-2.1109,-3.3189,-0.2447,3.941
12.7800,-2.3826,-2.5279,-0.4058,3.497
12.7970,-2.5785,-1.7711,-0.5227,3.171
12.8110,-2.6707,-1.2393,-0.6406,3.013
12.8130,-2.7177,-0.8488,-0.6195,2.914
12.8210,-2.6491,-0.6070,-0.6439,2.793
12.8310,-2.4871,-0.4821,-0.4802,2.579
12.8410,-2.2742,-0.5301,-0.3292,2.358
12.8520,-2.1162,-0.4742,-0.2933,2.188
12.8610,-1.9883,-0.5628,-0.1790,2.074
12.8720,-1.9658,-0.4425,-0.3015,2.037
12.8800,-2.0438,-0.4160,-0.2518,2.101
12.8920,-2.1857,-0.2439,-0.1497,2.204
12.9040,-2.3235,-0.0705,0.0283,2.325
12.9130,-2.4245,0.1302,0.2095,2.437
12.9430,-2.6190,0.3225,0.5460,2.695
12.9440,-2.6773,0.6505,0.6775,2.837
12.9450,-2.9003,0.9592,0.8999,3.185
12.9560,-3.0301,1.2176,1.0854,3.441
12.9620,-3.1452,1.4982,1.1126,3.657
12.9710,-3.2307,1.7305,1.1835,3.851
12.9810,-3.3281,1.9081,1.1162,3.995
12.9910,-3.5151,1.9226,0.9260,4.112
13.0010,-3.8349,1.9655,0.6471,4.358
13.0110,-4.1803,1.9441,0.4867,4.636
13.0220,-4.4352,2.0584,0.3792,4.904
13.0310,-4.5791,2.1921,0.3633,5.090
13.0440,-4.7262,2.2923,0.2137,5.257
13.0560,-4.8481,2.3114,0.1758,5.374
13.0640,-4.9637,2.4595,0.1558,5.542
13.0920,-5.2131,2.5797,0.2552,5.822
13.0940,-5.5143,2.6719,0.3770,6.139
13.0960,-5.9234,2.7264,0.4566,6.537
13.1050,-6.2153,2.7625,0.6457,6.832
13.1110,-6.7073,2.8585,0.5843,7.314
13.1210,-7.2559,2.9970,0.5096,7.867
13.1310,-7.7961,2.9216,0.3209,8.332
13.1410,-8.3310,2.9994,0.1114,8.855
13.1510,-8.5238,3.1904,0.0850,9.102
13.1630,-8.6463,3.5227,0.2055,9.339
13.1770,-8.6905,3.8843,0.4820,9.531
13.1830,-8.6082,4.3331,0.8270,9.673
13.1910,-8.3984,4.8511,1.2209,9.775
13.2160,-7.8134,5.5562,1.6574,9.730
13.2190,-7.2823,6.4054,1.9257,9.888
13.2220,-7.1101,6.8907,1.8504,10.073
13.2310,-7.2207,6.8122,1.4468,10.032
13.2410,-7.4047,6.3901,0.9088,9.823
13.2520,-7.5002,5.6854,0.2844,9.416
13.2610,-7.3608,5.0488,-0.0795,8.926
13.2710,-7.0818,4.4220,-0.2728,8.353
13.2810,-6.8082,3.7197,-0.4676,7.772
13.2920,-6.7518,2.8279,-0.5726,7.343
13.3010,-6.7426,2.0115,-0.3562,7.045
13.3110,-6.6536,1.3042,0.1161,6.781
13.3220,-6.6073,0.6828,0.5230,6.663
13.3300,-6.5750,0.1522,0.8773,6.635
13.3440,-6.4338,-0.3351,1.2061,6.554
13.3680,-6.2823,-0.8300,1.6290,6.543
13.3700,-5.9884,-1.1296,1.9408,6.396
13.3710,-5.5049,-1.4965,2.2625,6.137
13.3810,-5.0675,-1.6914,2.3864,5.851
13.3910,-4.7649,-1.8613,2.1158,5.536
13.4010,-4.3260,-2.3005,2.0663,5.317
13.4110,-3.7569,-2.7771,2.3525,5.231
13.4220,-3.3254,-3.2166,2.7662,5.390
13.4300,-2.9186,-3.5761,3.0816,5.550
13.4410,-2.4821,-3.9698,3.2522,5.701
13.4520,-2.1329,-4.3580,2.9437,5.675
13.4610,-1.8501,-4.6596,2.5150,5.609
13.4720,-1.5279,-5.0435,2.1441,5.689
13.4800,-1.2167,-5.3194,1.6229,5.693
13.5010,-0.8491,-5.6531,1.2124,5.844
13.5040,-0.5086,-5.9729,0.7535,6.042
13.5130,-0.1187,-6.2552,0.4064,6.269
13.5220,0.2676,-6.5744,0.1347,6.581
13.5310,0.6796,-6.8895,-0.1376,6.924
13.5420,1.0820,-7.0567,-0.1866,7.142
13.5520,1.5158,-7.2552,-0.2156,7.415
13.5610,2.0526,-7.4208,-0.1921,7.702
13.5760,2.5351,-7.5475,-0.0994,7.962
13.5810,2.9882,-7.5231,-0.0215,8.095
13.5920,3.3222,-7.7101,0.2523,8.399
13.6100,3.5867,-7.7751,0.4051,8.572
13.6140,3.9076,-7.8623,0.4016,8.789
13.6460,4.1285,-7.9460,0.3701,8.962
13.6480,4.1982,-7.9618,0.2431,9.004
13.6500,4.1655,-7.9797,0.1005,9.002
13.6600,4.1417,-8.1200,-0.0548,9.115
13.6630,4.1132,-8.1301,-0.1154,9.112
13.6730,4.2051,-8.3466,-0.2604,9.350
13.6800,4.2796,-8.4278,-0.3993,9.461
13.6910,4.3083,-8.6626,-0.6835,9.699
13.7020,4.5422,-8.8295,-0.9171,9.972
13.7110,4.6650,-8.9659,-1.1931,10.177
13.7220,4.7166,-9.1710,-1.4432,10.413
13.7300,4.7107,-9.5863,-1.6845,10.813
13.7410,4.8110,-9.7250,-1.9876,11.030
13.7550,4.9379,-9.7873,-2.1615,11.173
13.7620,4.8590,-9.7888,-2.3059,11.169
13.7860,4.7673,-9.8491,-2.5038,11.225
13.7880,4.6336,-9.7467,-2.6020,11.101
13.7910,4.5675,-9.4757,-2.6370,10.845
13.8030,4.3380,-9.0371,-2.4604,10.322
13.8110,4.0010,-8.4557,-2.0317,9.573
13.8200,3.5254,-7.9890,-1.7723,8.910
13.8310,3.0145,-7.6301,-1.5930,8.357
13.8420,2.2745,-7.3737,-1.4196,7.846
13.8520,1.4811,-7.2089,-1.1105,7.443
13.8610,0.9250,-7.1850,-0.7700,7.285
13.8740,0.4667,-7.2189,-0.4287,7.247
13.8810,0.0484,-7.5180,-0.0816,7.519
13.8910,-0.3684,-7.8656,0.0514,7.874
13.9000,-0.7273,-8.0194,0.1421,8.054
13.9220,-1.0822,-7.8495,0.3153,7.930
13.9240,-1.5017,-7.1440,0.4090,7.312
13.9310,-1.7478,-6.1721,0.4815,6.433
13.9410,-2.1322,-5.0977,0.6485,5.564
13.9530,-2.3672,-4.0999,0.8374,4.808
13.9600,-2.4379,-3.0186,0.9842,4.003
13.9720,-2.5629,-1.9726,0.9750,3.378
13.9800,-2.6871,-1.0387,0.9653,3.038
13.9910,-2.8388,-0.3071,0.7882,2.962
14.0010,-3.0830,0.2947,0.5248,3.141
14.0100,-3.3334,0.6462,0.2113,3.402
14.0210,-3.3383,0.8986,-0.0478,3.457
14.0320,-3.0943,0.8825,-0.1932,3.223
14.0430,-2.5801,0.6456,-0.1485,2.664
14.0830,-1.9813,0.3047,-0.0015,2.005
14.0840,-1.4775,-0.0133,0.2468,1.498
14.0850,-1.1607,-0.1252,0.4868,1.265
14.0860,-1.0903,-0.2380,0.6083,1.271
14.0910,-1.3471,-0.3093,0.8491,1.622
14.1040,-1.4912,-0.0500,1.0068,1.800
14.1110,-1.7690,0.2465,0.9109,2.005
14.1210,-2.0066,0.6196,0.5459,2.170
14.1310,-2.2517,0.8548,0.1864,2.416
14.1410,-2.4511,1.1211,-0.0905,2.697
14.1520,-2.4458,1.3975,-0.2955,2.832
14.1620,-2.3467,1.4964,-0.3052,2.800
14.1720,-2.2513,1.5472,-0.4376,2.767
14.1810,-2.2713,1.5101,-0.5434,2.781
14.2020,-2.4249,1.4871,-0.4457,2.879
14.2040,-2.7179,1.3548,-0.3068,3.052
14.2170,-3.0144,1.3081,-0.2139,3.293
14.2460,-3.3278,1.2698,0.0462,3.562
14.2480,-3.7740,1.2702,0.2171,3.988
14.2490,-4.0345,1.3023,0.4306,4.261
14.2590,-4.1614,1.5914,0.6174,4.498
14.2620,-4.2055,1.8670,0.6958,4.654
14.2720,-4.5986,2.0538,0.7428,5.091
14.2810,-5.1262,2.1946,0.7409,5.625
14.2920,-5.7619,2.5467,0.8055,6.351
14.3060,-6.1897,2.8366,0.7284,6.848
14.3120,-6.9626,3.2270,0.4975,7.690
14.3400,-7.8825,3.5049,-0.0307,8.627
14.3420,-8.6275,3.7613,-0.5038,9.425
14.3430,-8.9883,4.0607,-0.7367,9.891
14.3540,-9.1474,4.3620,-0.6973,10.158
14.3610,-9.0945,4.5885,-0.7056,10.211
14.3700,-8.8869,4.8268,-0.4461,10.123
14.3810,-8.4414,5.1240,-0.0135,9.875
14.3910,-7.7234,5.7049,0.6618,9.625
14.4010,-7.0741,6.2696,1.0085,9.506
14.4100,-6.8767,6.4794,1.1118,9.514
14.4210,-7.0717,6.1460,0.8748,9.410
14.4300,-7.2606,5.4500,0.4278,9.089
14.4410,-7.2162,4.8366,0.0579,8.687
14.4510,-6.9883,4.3491,-0.2221,8.234
14.4700,-6.7187,3.8636,-0.3184,7.757
14.4720,-6.4695,3.2731,-0.5351,7.270
14.4800,-6.3487,2.6498,-0.5662,6.903
14.4920,-6.3042,2.0108,-0.2843,6.623
14.5010,-6.2506,1.2176,0.0380,6.368
14.5100,-6.0306,0.5135,0.3904,6.065
14.5220,-5.8018,-0.0648,0.7522,5.851
14.5300,-5.5300,-0.5569,1.2821,5.704
14.5410,-5.1509,-0.8743,1.7998,5.526
14.5530,-4.7800,-1.1358,2.2875,5.419
14.5610,-4.5279,-1.2252,2.6793,5.402
14.5730,-4.2280,-1.1905,2.6535,5.132
14.5810,-3.7407,-1.3259,2.6465,4.770
14.5980,-3.2454,-1.5436,2.7310,4.514
14.6450,-2.7798,-1.8418,2.8414,4.381
14.6470,-2.2954,-2.3003,3.0947,4.488
14.6470,-2.0797,-2.5074,3.2879,4.628
14.6480,-1.7672,-2.7668,3.3472,4.688
14.6490,-1.5212,-2.9872,3.2805,4.690
14.6590,-1.3403,-3.3954,3.1034,4.791
14.6630,-1.0408,-3.8361,2.5945,4.747
14.6720,-0.7097,-4.2543,2.1323,4.811
14.6810,-0.3354,-4.6378,1.7952,4.984
14.6900,0.1177,-4.9235,1.6323,5.188
14.7020,0.4515,-5.2011,1.5197,5.437
14.7100,0.8739,-5.4573,1.4615,5.717
14.7220,1.2054,-5.7689,1.2098,6.016
14.7300,1.6016,-5.9627,1.2675,6.303
14.7430,2.0791,-6.0024,1.2732,6.479
14.7500,2.4709,-5.9734,1.4106,6.616
14.7850,2.9462,-6.0019,1.4114,6.833
14.7860,3.1979,-6.1437,1.3264,7.052
14.7870,3.3848,-6.2524,1.1581,7.203
14.7910,3.5016,-6.3628,1.1454,7.352
14.8020,3.7561,-6.4483,1.0763,7.540
14.8110,3.8375,-6.5424,1.0413,7.656
14.8220,3.8575,-6.6046,0.8461,7.695
14.8310,3.7835,-6.8073,0.5409,7.807
14.8410,3.7790,-6.9828,0.4807,7.954
14.8510,3.8877,-7.1125,0.3970,8.115
14.8680,3.9092,-7.3015,0.3702,8.290
14.8700,3.8536,-7.5710,0.4376,8.507
14.8810,3.8794,-7.7761,0.4934,8.704
14.9000,3.9208,-7.9660,0.2623,8.882
14.9020,3.9934,-8.2204,0.1384,9.140
14.9110,3.8819,-8.4848,-0.1118,9.331
14.9240,3.7207,-9.0621,-0.2306,9.799
14.9310,3.7109,-9.3967,-0.3425,10.109
14.9410,3.8335,-9.3805,-0.6227,10.153
14.9520,3.8156,-9.3326,-0.8436,10.118
14.9610,3.8813,-9.3967,-1.1770,10.235
14.9730,3.9538,-9.2847,-1.5304,10.207
14.9810,4.0909,-9.0596,-1.7899,10.100
14.9910,4.3288,-8.6411,-1.8766,9.845
15.0070,4.4189,-8.1662,-1.5962,9.421
15.0150,4.2112,-7.5800,-1.3579,8.777
15.0450,3.7428,-7.1377,-0.9736,8.118
15.0470,3.1511,-6.8513,-0.5756,7.563
15.0480,2.2095,-6.5864,-0.3209,6.955
15.0590,1.3766,-6.3195,0.0913,6.468
15.0620,0.9199,-6.1429,0.3713,6.223
15.0720,0.3897,-6.1327,0.3747,6.156
15.0810,0.0439,-6.3106,0.3924,6.323
15.0910,-0.3916,-6.2458,0.3375,6.267
15.1020,-0.8296,-5.7845,0.2447,5.849
15.1110,-1.0715,-5.0945,0.1925,5.210
15.1220,-1.2261,-4.3061,0.1039,4.478
15.1300,-1.3238,-3.3164,0.0875,3.572
15.1450,-1.3099,-2.3951,0.0742,2.731
15.1680,-1.3930,-1.5258,-0.0026,2.066
15.1700,-1.3880,-0.7883,-0.1501,1.603
15.1710,-1.4220,-0.0216,-0.1423,1.429
15.1800,-1.5096,0.5533,-0.4471,1.669
15.1910,-1.6649,0.8663,-0.6445,1.984
15.2000,-1.7971,1.0194,-0.7807,2.209
15.2100,-1.5420,0.8482,-0.6775,1.886
15.2220,-1.2316,0.5458,-0.5231,1.445
15.2300,-0.8170,0.1946,-0.2499,0.876
15.2410,-0.4704,-0.2616,0.2317,0.586
15.2500,-0.1888,-0.7119,0.5272,0.906
15.2610,-0.0779,-1.0792,0.7742,1.330
15.2740,-0.0983,-1.1587,0.9880,1.526
15.3150,-0.1935,-1.1707,1.2134,1.697
15.3170,-0.4937,-1.0789,1.4188,1.850
15.3170,-0.8199,-0.7876,1.4934,1.877
15.3180,-1.1239,-0.3457,1.4595,1.874
15.3220,-1.4934,0.1296,1.4740,2.102
15.3310,-1.7259,0.4369,1.3947,2.262
15.3410,-1.9244,0.7260,1.2518,2.408
15.3500,-1.9548,0.9488,1.0561,2.416
15.3600,-1.9593,1.0842,0.9043,2.415
15.3730,-1.9756,1.1129,0.5719,2.339
15.3810,-2.2592,1.2005,0.3330,2.580
15.3910,-2.5900,1.1348,0.1191,2.830
15.4090,-2.8323,1.2068,-0.0601,3.079
15.4150,-3.0165,1.3653,-0.1376,3.314
15.4480,-3.3089,1.4085,-0.1527,3.599
15.4500,-3.6163,1.4347,-0.4602,3.918
15.4510,-3.8547,1.6761,-0.4908,4.232
15.4530,-4.0156,1.9420,-0.4822,4.487
15.4610,-4.2797,2.0971,-0.4496,4.787
15.4720,-4.9106,2.3289,-0.3833,5.448
15.4810,-5.5429,2.6310,-0.1984,6.139
15.4910,-6.1787,2.9783,-0.1250,6.860
15.5000,-6.9535,3.2626,-0.3008,7.687
15.5110,-7.6519,3.1553,-0.9420,8.330
15.5220,-8.1708,2.9894,-1.6191,8.850
15.5300,-8.3589,2.7615,-2.1267,9.057
15.5500,-8.3377,2.8850,-2.3844,9.139
15.5530,-8.0882,3.2012,-2.3237,9.004
15.5630,-7.6672,3.7193,-2.0295,8.760
15.5870,-7.3095,4.3871,-1.3784,8.636
15.5890,-6.9469,5.1374,-0.6190,8.662
15.5910,-6.8063,5.6628,-0.3282,8.860
15.6010,-6.8903,5.7421,-0.3086,8.975
15.6100,-7.1587,5.4647,-0.3694,9.014
15.6210,-7.1363,5.1884,-0.3369,8.829
15.6310,-6.9837,4.8247,-0.2473,8.492
15.6420,-6.6379,4.4189,-0.1199,7.975
15.6510,-6.2848,3.9262,-0.1123,7.411
15.6610,-5.9592,3.3506,-0.1140,6.837
15.6770,-5.6993,2.6858,-0.0369,6.301
15.6820,-5.6051,2.1352,0.1064,5.999
15.7190,-5.4677,1.5604,0.0884,5.687
15.7210,-5.3209,1.1806,0.2892,5.458
15.7220,-5.1948,0.8237,0.6176,5.296
15.7230,-4.9876,0.4739,0.9677,5.103
15.7300,-4.6145,0.2468,1.2526,4.788
15.7410,-4.3120,0.1686,1.6077,4.605
15.7510,-3.9699,0.0608,1.9670,4.431
15.7610,-3.7442,0.1034,1.9981,4.245
15.7740,-3.3799,-0.0651,1.9213,3.888
15.7810,-3.0286,-0.3626,1.9979,3.646
15.7910,-2.7851,-0.6749,2.3518,3.707
15.8020,-2.6067,-0.9583,2.7353,3.898
15.8140,-2.3236,-1.4146,2.9227,3.993
15.8540,-2.2272,-1.9276,3.0251,4.222
15.8560,-2.1040,-2.4541,2.9995,4.410
15.8570,-1.9110,-2.9804,2.8497,4.545
15.8580,-1.4943,-3.4473,2.7336,4.646
15.8620,-1.0418,-3.8843,2.5254,4.749
15.8730,-0.4404,-4.3520,2.3319,4.957
15.8810,-0.0159,-4.7175,2.0143,5.130
15.8910,0.4607,-5.0853,1.7276,5.390
15.9010,0.8526,-5.3271,1.5497,5.613
15.9110,1.3315,-5.5467,1.4834,5.894
15.9220,1.7578,-5.7799,1.4691,6.217
15.9310,2.1692,-5.8303,1.4849,6.395
15.9500,2.6521,-5.9781,1.5038,6.711
15.9880,2.9552,-6.1566,1.3578,6.963
15.9900,3.0953,-6.3020,1.3448,7.149
15.9910,3.3334,-6.4731,1.4259,7.419
15.9920,3.4588,-6.6821,1.4355,7.660
15.9930,3.5737,-6.8517,1.3287,7.841
16.0020,3.6163,-6.9253,1.2974,7.920
16.0110,3.7079,-7.0527,0.9235,8.021
16.0220,3.6916,-7.1359,0.8654,8.081
16.0300,3.6635,-7.3160,0.8289,8.224
16.0400,3.5716,-7.3865,0.5593,8.224
16.0530,3.4936,-7.5221,0.4432,8.306
16.0610,3.2674,-7.5339,0.3483,8.219
16.0720,3.2238,-7.7005,0.3746,8.357
16.0800,2.9415,-7.8704,0.2489,8.406
16.0930,2.5021,-8.2011,0.0437,8.574
16.1000,2.2505,-8.7897,-0.3280,9.079
16.1530,2.2348,-9.2732,-0.7243,9.566
16.1570,2.4983,-9.6490,-1.1538,10.034
16.1590,3.1513,-9.6892,-1.5812,10.311
16.1600,3.7298,-9.5492,-1.6545,10.384
16.1610,4.3581,-9.2107,-1.6177,10.317
16.1620,4.6918,-8.8068,-1.4895,10.089
16.1740,4.8502,-8.1128,-1.2171,9.530
16.1810,4.5924,-7.4521,-0.9678,8.807
16.1920,4.0371,-6.7259,-0.6792,7.874
16.2010,3.2121,-6.1153,-0.2050,6.911
16.2120,2.2552,-5.6329,0.0012,6.068
16.2260,1.2227,-5.2344,-0.0713,5.376
16.2700,0.4496,-5.0842,-0.6791,5.149
16.2720,-0.0931,-5.1954,-1.3199,5.361
16.2720,-0.3096,-5.4150,-1.9088,5.750
16.2740,-0.3054,-5.5778,-2.3421,6.057
16.2740,-0.1282,-5.2827,-2.4209,5.812
16.2800,0.3933,-4.6632,-2.0919,5.126
16.2910,0.7666,-4.0347,-1.5240,4.381
16.3000,0.8507,-3.2892,-1.0174,3.546
16.3100,0.9099,-2.6040,-0.5874,2.820
16.3240,0.9101,-1.8821,-0.0668,2.092
16.3320,0.8322,-1.3541,0.2602,1.611
16.3410,0.6054,-0.9637,0.4389,1.220
16.3500,0.2879,-0.6644,0.5685,0.921
16.3670,0.0634,-0.6478,0.5515,0.853
16.3700,-0.0563,-0.6409,0.5870,0.871
16.3830,0.0292,-0.7510,0.7136,1.036
16.4130,0.3293,-0.8560,0.8546,1.254
16.4150,0.6641,-1.2129,0.9356,1.670
16.4160,0.9980,-1.5900,0.8758,2.072
16.4280,1.0056,-1.7362,0.6531,2.110
16.4330,0.9214,-1.7805,0.3316,2.032
16.4420,0.7452,-1.8235,0.2069,1.981
16.4510,0.4754,-1.6237,0.3040,1.719
16.4600,0.0881,-1.4214,0.3488,1.466
16.4710,-0.2854,-1.0193,0.3567,1.117
16.4800,-0.7127,-0.6320,0.6191,1.136
16.4910,-1.1874,-0.0905,0.5179,1.299
16.5300,-1.5597,0.2723,0.3307,1.617
16.5310,-1.8984,0.5427,0.2156,1.986
16.5320,-2.1894,0.7123,0.2399,2.315
16.5330,-2.3566,0.8824,0.1353,2.520
16.5430,-2.5733,1.0144,-0.0344,2.766
16.5510,-2.7659,0.9067,-0.1722,2.916
16.5600,-2.8980,0.9001,-0.2273,3.043
16.5720,-3.2439,0.8924,-0.0653,3.365
16.5810,-3.9171,0.9761,0.2697,4.046
16.5990,-4.4613,1.1083,0.4540,4.619
16.6070,-4.8807,1.4813,0.2573,5.107
16.6130,-5.0328,1.6898,0.1986,5.313
16.6240,-5.1419,1.9292,0.1790,5.495
16.6300,-5.3642,2.1878,-0.1818,5.796
16.6430,-5.4611,2.5284,-0.5882,6.047
16.6500,-5.6943,2.7953,-1.0007,6.422
16.7000,-6.2189,2.9715,-1.3885,7.031
16.7030,-6.9854,2.8158,-1.7480,7.732
16.7040,-7.5079,2.7910,-2.0235,8.262
16.7040,-7.8803,2.7525,-1.9648,8.575
16.7050,-7.9624,3.0685,-1.9367,8.750
16.7100,-8.0940,3.3902,-1.8519,8.969
16.7220,-8.0172,3.7958,-1.7479,9.041
16.7300,-7.6988,4.3587,-1.5838,8.988
16.7400,-7.1545,5.0806,-1.3898,8.884
16.7510,-6.9446,5.6313,-1.3819,9.047
16.7610,-7.0386,5.7773,-1.3526,9.206
16.7800,-7.3047,5.7393,-1.5414,9.417
16.7840,-7.4812,5.5529,-1.6011,9.453
16.8330,-7.3555,5.1903,-1.4447,9.118
16.8350,-7.0956,4.8399,-1.2862,8.685
16.8370,-6.7835,4.4105,-1.0738,8.162
16.8390,-6.3666,3.8240,-0.9921,7.493
16.8410,-6.0794,3.1078,-0.8808,6.884
16.8420,-5.7914,2.2206,-0.6474,6.236
16.8510,-5.4196,1.6235,-0.4775,5.678
16.8610,-5.0925,1.0416,-0.0888,5.199
16.8730,-4.8131,0.7162,0.3856,4.881
16.8800,-4.5962,0.4174,0.8789,4.698
16.8920,-4.4583,0.3001,1.3982,4.682
16.9000,-4.3023,0.2193,2.1427,4.811
16.9110,-4.0412,0.2511,2.5287,4.774
16.9250,-3.7973,0.2399,2.6004,4.609
16.9320,-3.5188,0.3015,2.4417,4.294
16.9550,-3.0559,0.1745,2.2793,3.816
16.9560,-2.6319,-0.2225,2.3226,3.517
16.9610,-2.1712,-0.6173,2.5383,3.397
16.9720,-1.7186,-1.1948,2.6297,3.361
16.9800,-1.2883,-1.8220,2.4660,3.326
16.9910,-0.8452,-2.3249,2.2511,3.345
17.0010,-0.5392,-2.6814,2.0492,3.418
17.0110,-0.2622,-2.9452,1.8893,3.509
17.0220,-0.1095,-3.3370,1.8705,3.827
17.0310,0.0616,-3.7427,1.7074,4.114
17.0410,0.2603,-4.0213,1.4426,4.280
17.0500,0.5157,-4.1940,1.1548,4.381
17.0680,0.9761,-4.3712,0.9760,4.584
17.0740,1.3334,-4.5827,0.6300,4.814
17.0840,1.6829,-4.7729,0.4873,5.084
17.1070,1.9452,-4.8527,0.4711,5.249
17.1090,2.2915,-5.0108,0.5656,5.539
17.1120,2.5151,-5.1581,0.7405,5.786
17.1230,2.6841,-5.3518,1.0010,6.070
17.1300,2.7977,-5.5620,1.1917,6.339
17.1410,2.9997,-5.9212,1.3045,6.765
17.1530,3.0605,-6.1740,1.3943,7.031
17.1610,3.0200,-6.3814,1.3736,7.192
17.1720,3.1023,-6.6701,1.3141,7.473
17.1800,3.1274,-6.9207,1.0915,7.673
17.1920,3.1769,-7.2805,0.8471,7.989
17.2000,3.3524,-7.5741,0.5346,8.300
17.2140,3.4441,-7.7136,0.3143,8.453
17.2400,3.5199,-7.8343,0.2688,8.593
17.2410,3.5851,-8.0134,0.1987,8.781
17.2430,3.6309,-8.1484,0.1468,8.922
17.2500,3.3993,-8.3299,-0.0415,8.997
17.2600,3.0919,-8.6885,-0.0775,9.223
17.2720,3.1351,-8.7852,-0.2533,9.331
17.2810,3.0472,-8.7445,-0.5259,9.275
17.2910,2.9988,-8.8099,-0.7447,9.336
17.3000,3.2293,-8.8871,-0.7850,9.488
17.3110,3.6126,-8.7635,-0.9148,9.523
17.3210,4.1360,-8.4221,-0.8650,9.423
17.3310,4.7272,-7.8168,-0.5720,9.153
17.3410,4.7584,-7.2626,-0.2248,8.686
17.3500,4.6598,-6.6393,0.1666,8.113
17.3900,4.2389,-6.1784,0.4532,7.506
17.3910,3.5568,-5.7899,0.2522,6.800
17.3920,2.7082,-5.3343,0.1005,5.983
17.3930,1.9031,-5.0049,-0.1037,5.356
17.4010,1.3140,-4.8282,-0.4646,5.025
17.4110,1.0518,-4.7203,-0.7789,4.898
17.4210,1.0011,-4.9572,-1.2320,5.205
17.4310,0.8556,-5.2939,-1.3898,5.540
17.4400,0.9164,-5.3419,-1.3508,5.586
17.4510,1.1013,-5.2380,-1.1863,5.482
17.4610,1.2752,-4.8037,-0.6476,5.012
17.4760,1.2032,-4.1848,-0.1011,4.356
17.4810,1.1918,-3.6226,0.3557,3.830
17.5240,1.1964,-3.0983,0.8042,3.417
17.5260,1.0391,-2.5695,1.0617,2.968
17.5270,0.6408,-1.9638,1.2066,2.392
17.5280,0.2315,-1.4113,1.2143,1.876
17.5310,-0.2283,-1.0321,1.1033,1.528
17.5410,-0.5867,-0.7688,0.9519,1.357
17.5510,-0.6346,-0.6522,0.7743,1.195
17.5600,-0.5699,-0.6253,0.5038,0.985
17.5720,-0.3018,-0.7528,0.3761,0.894
17.5800,0.0342,-0.8910,0.2779,0.934
17.5910,0.1697,-1.1293,0.2142,1.162
17.6000,0.2572,-1.3371,0.1667,1.372
17.6100,0.1650,-1.4658,-0.0339,1.475
17.6240,-0.1561,-1.5576,0.1449,1.572
17.6320,-0.5106,-1.4140,0.4226,1.562
17.6630,-1.0041,-1.0215,0.7154,1.601
17.6650,-1.6114,-0.6669,0.8453,1.938
17.6660,-2.1477,-0.1120,0.6311,2.241
17.6770,-2.6372,0.5217,0.2159,2.697
17.6800,-2.8617,0.9713,-0.2976,3.037
17.6900,-3.2269,1.3355,-0.8385,3.592
17.7000,-3.6619,1.7108,-1.2922,4.243
17.7100,-4.1082,2.0991,-1.6609,4.903
17.7210,-4.3313,2.2905,-1.7789,5.213
17.7300,-4.1531,2.3047,-2.0915,5.190
17.7420,-3.8033,2.1329,-2.5369,5.045
17.7500,-3.3398,1.8772,-2.6304,4.647
17.7610,-2.9524,1.7414,-2.5307,4.261
17.8050,-2.7351,1.7617,-2.2203,3.939
17.8080,-2.9719,1.8383,-1.6684,3.872
17.8100,-3.5636,1.9151,-0.9630,4.159
17.8110,-4.3070,2.0370,-0.3288,4.776
17.8110,-5.1568,2.2460,0.4632,5.644
17.8230,-5.9458,2.5332,1.0565,6.549
17.8300,-6.5666,2.8606,1.5156,7.321
17.8400,-7.0396,3.1313,1.8113,7.915
17.8500,-7.4965,2.8801,1.9546,8.265
17.8610,-7.6802,2.5495,1.9320,8.320
17.8710,-7.5790,2.4312,1.7733,8.155
17.8810,-7.3392,2.3317,1.5939,7.864
17.8930,-7.2063,2.4674,1.3706,7.739
17.9430,-7.0923,2.5676,1.2193,7.641
17.9450,-6.8180,2.9471,1.1546,7.517
17.9460,-6.4496,3.7586,1.1572,7.554
17.9470,-6.3497,4.3483,0.8736,7.745
17.9480,-6.6415,4.5159,0.3643,8.040
17.9580,-6.9355,4.5751,-0.1324,8.310
17.9610,-7.3354,4.3051,-0.6383,8.529
17.9730,-7.3230,4.2137,-0.8327,8.490
17.9810,-7.0999,4.1039,-1.0334,8.265
17.9910,-6.8393,3.9422,-1.0765,7.967
18.0030,-6.5781,3.5303,-1.0759,7.543
18.0100,-6.4172,3.0676,-0.8529,7.164
18.0230,-6.2573,2.4588,-0.5119,6.743
18.0300,-5.9781,1.9080,-0.2366,6.280
18.0480,-5.7824,1.5454,0.1627,5.988
18.0500,-5.5058,1.1864,0.3391,5.642
18.0840,-5.2551,0.9706,0.6319,5.381
18.0860,-4.8511,0.8003,0.8923,4.997
18.0870,-4.4150,0.5426,1.0540,4.571
18.0900,-3.9479,0.2899,1.1367,4.118
18.1000,-3.4145,0.0851,1.2777,3.647
18.1100,-2.8270,-0.1800,1.5112,3.211
18.1210,-2.2632,-0.5393,1.8187,2.953
18.1300,-1.8872,-0.9292,2.0835,2.961
18.1400,-1.6895,-1.2274,2.3074,3.112
18.1500,-1.5302,-1.6156,2.3984,3.272
18.1600,-1.4534,-2.0416,2.3931,3.465
18.1790,-1.2350,-2.5702,2.3726,3.710
18.2300,-0.9889,-2.9400,2.0780,3.734
18.2320,-0.6473,-3.2972,1.8931,3.857
18.2330,-0.2586,-3.6622,1.7433,4.064
18.2340,0.1668,-4.0334,1.5950,4.341
18.2360,0.5803,-4.3276,1.4270,4.594
18.2370,0.9816,-4.6091,1.3105,4.891
18.2450,1.4001,-4.9247,1.0913,5.235
18.2510,1.7362,-5.2112,0.9009,5.566
18.2610,2.1230,-5.3872,0.6484,5.827
18.2720,2.4638,-5.5471,0.4039,6.083
18.2800,2.6848,-5.7081,0.2370,6.312
18.2910,2.7436,-5.9731,0.0108,6.573
18.3000,2.5851,-6.1905,-0.2324,6.713
18.3180,2.4580,-6.4095,-0.1994,6.868
18.3270,2.3872,-6.6266,0.0086,7.043
18.3310,2.4987,-6.8241,0.3029,7.274
18.3620,2.4532,-7.0568,0.5133,7.489
18.3630,2.4478,-7.1784,0.6446,7.612
18.3640,2.4926,-7.3374,0.8258,7.793
18.3760,2.5642,-7.3958,0.8078,7.869
18.3830,2.7589,-7.5999,0.7119,8.116
18.3910,2.9574,-7.5494,0.6147,8.131
18.4010,3.0546,-7.5498,0.5482,8.163
18.4110,3.0794,-7.5856,0.4790,8.201
18.4210,2.8120,-7.8757,0.3751,8.371
18.4300,2.7028,-8.0742,0.1074,8.515
18.4420,2.7572,-8.0947,-0.1712,8.553
18.4500,2.9443,-8.0634,-0.4297,8.595
18.4700,2.9460,-8.1039,-0.5570,8.641
18.4720,3.1932,-8.2699,-0.7924,8.900
18.4840,3.6237,-8.2536,-0.8773,9.057
18.5100,4.0704,-8.0280,-0.7025,9.028
18.5120,4.6435,-7.6192,-0.5748,8.941
18.5130,4.9962,-7.1824,-0.4656,8.762
18.5240,4.9338,-6.5629,-0.2530,8.215
18.5310,4.4742,-5.9233,-0.0936,7.424
18.5400,4.0044,-5.4986,0.0707,6.803
18.5500,3.2984,-5.2853,0.0863,6.231
18.5600,2.7674,-5.1517,-0.1198,5.849
18.5700,2.4590,-5.1743,-0.2870,5.736
18.5800,2.4070,-5.3706,-0.5994,5.916
18.5920,2.2569,-5.7451,-0.9340,6.243
18.6000,2.0946,-5.8799,-1.1606,6.349
18.6200,2.0104,-5.8788,-1.0381,6.299
18.6220,1.8164,-5.7061,-0.6218,6.020
18.6300,1.5165,-5.3089,-0.0933,5.522
18.6650,1.2875,-4.6582,0.2926,4.842
18.6660,1.0762,-4.0228,0.8192,4.244
18.6670,0.9776,-3.2961,1.0880,3.606
18.6790,0.5813,-2.5121,1.2162,2.851
18.6810,0.0344,-1.8986,1.1262,2.208
18.6920,-0.4920,-1.3998,0.7683,1.671
18.7000,-0.6815,-0.9619,0.3201,1.222
18.7100,-0.3929,-0.7745,-0.2553,0.905
18.7210,-0.1378,-0.8232,-0.7541,1.125
18.7340,0.3622,-0.9315,-1.1351,1.512
18.7780,0.9049,-1.3099,-1.3523,2.089
18.7790,1.2998,-1.6076,-1.4188,2.507
18.7810,1.5806,-1.8922,-1.2007,2.742
18.7820,1.5535,-2.1336,-0.7521,2.744
18.7820,1.1059,-2.0728,-0.1423,2.354
18.7930,0.3767,-1.7728,0.3481,1.846
18.8010,-0.2761,-1.3276,0.6542,1.506
18.8100,-1.1045,-0.7941,0.7090,1.534
18.8210,-1.7999,-0.3482,0.4599,1.890
18.8300,-2.4761,-0.0527,-0.1152,2.479
18.8410,-2.6459,0.2011,-0.9551,2.820
18.8500,-2.7302,0.5167,-1.6785,3.246
18.8610,-2.6300,0.7867,-2.2185,3.530
18.8760,-2.5992,0.9381,-2.5607,3.767
18.8830,-2.5440,0.9398,-2.6748,3.809
18.9300,-2.7260,0.8298,-2.4522,3.759
18.9310,-2.9340,0.7799,-2.0505,3.663
18.9320,-3.4313,0.8774,-1.6450,3.905
18.9330,-3.9970,1.0169,-1.2630,4.313
18.9340,-4.5866,1.2789,-1.0691,4.880
18.9470,-4.9877,1.5614,-0.7818,5.285
18.9510,-4.9788,1.9548,-0.2776,5.356
18.9600,-4.9486,2.1882,0.0699,5.411
18.9710,-4.8146,2.1091,0.3248,5.266
18.9800,-4.6750,2.1520,0.5846,5.180
18.9920,-4.6380,2.2384,0.7813,5.209
19.0070,-4.9078,2.5200,0.9142,5.592
19.0140,-5.5458,2.7718,0.8470,6.258
19.0480,-6.4069,2.6851,0.6478,6.977
19.0500,-7.1299,2.6518,0.3780,7.616
19.0510,-7.2629,2.8386,0.1525,7.799
19.0520,-7.4523,3.1834,-0.0906,8.104
19.0630,-7.5509,3.4868,-0.2632,8.321
19.0710,-7.4161,3.9035,-0.3599,8.388
19.0800,-6.8623,4.7516,-0.3852,8.356
19.0910,-6.5791,5.3473,-0.5647,8.497
19.1000,-6.7590,5.5380,-0.9507,8.790
19.1110,-7.1169,5.4600,-1.5721,9.107
19.1200,-7.3668,5.3181,-1.9910,9.301
19.1300,-7.4373,5.1422,-2.2153,9.309
19.1410,-7.5349,4.9218,-1.8996,9.198
19.1490,-7.6497,4.5819,-1.4412,9.033
19.1670,-7.6611,4.1776,-0.9491,8.778
19.1980,-7.5277,3.6387,-0.5538,8.379
19.2000,-7.3995,3.0432,-0.1836,8.003
19.2010,-7.1243,2.3565,0.2215,7.507
19.2010,-6.8375,1.6500,0.6917,7.068
19.2120,-6.5975,1.2060,1.2906,6.830
19.2210,-6.1835,0.9658,1.6627,6.476
19.2290,-5.8715,0.8272,2.0001,6.258
19.2400,-5.4841,0.6803,2.3234,5.995
19.2490,-5.0446,0.5000,2.6796,5.734
19.2600,-4.6187,0.5581,2.9550,5.511
19.2700,-4.1674,0.4170,3.0825,5.200
19.2800,-3.7537,0.1623,3.0766,4.856
19.2910,-3.3276,-0.1996,3.2389,4.648
19.2990,-2.8992,-0.6804,3.2917,4.439
19.3140,-2.6594,-1.2154,3.2592,4.379
19.3480,-2.4276,-1.8283,3.0714,4.321
19.3500,-2.2458,-2.2317,2.6172,4.108
19.3500,-1.8800,-2.5505,2.2470,3.884
19.3510,-1.4304,-2.8889,1.8436,3.714
19.3620,-1.0291,-3.1698,1.2986,3.577
19.3730,-0.5840,-3.5642,0.8902,3.720
19.3790,-0.1493,-3.9987,0.5441,4.038
19.3910,0.2248,-4.3730,0.2187,4.384
19.3990,0.7296,-4.6967,-0.1050,4.754
19.4100,1.2211,-5.1156,-0.3019,5.268
19.4260,1.7912,-5.4011,-0.3223,5.699
19.4790,2.3866,-5.6303,-0.2691,6.121
19.4810,2.7794,-5.8535,-0.1916,6.483
19.4820,3.0554,-6.0591,0.0310,6.786
19.4820,3.2012,-6.1162,0.0202,6.903
19.4830,3.3619,-6.1455,0.1450,7.006
19.4840,3.4190,-6.2173,0.3449,7.104
19.4940,3.4732,-6.3107,0.6641,7.234
19.5000,3.6414,-6.4679,0.8028,7.466
19.5100,3.5650,-6.6414,0.8464,7.585
19.5210,3.5138,-6.9249,0.5133,7.782
19.5300,3.4693,-7.1277,0.2331,7.931
19.5410,3.3702,-7.3285,0.0384,8.066
19.5500,3.2555,-7.4845,-0.1338,8.163
19.5600,3.3889,-7.4662,-0.2248,8.202
19.5760,3.5219,-7.3879,-0.2207,8.187
19.6360,3.7315,-7.3854,-0.2221,8.278
19.6380,3.7118,-7.4629,-0.3782,8.344
19.6390,3.4450,-7.7215,-0.3152,8.461
19.6400,3.3897,-7.7797,-0.2607,8.490
19.6400,3.4213,-7.3853,-0.3385,8.146
19.6410,3.4293,-7.1268,-0.3643,7.917
19.6420,3.2743,-7.0724,-0.6371,7.820
19.6500,3.1758,-6.9609,-0.8906,7.703
19.6600,3.2907,-6.6874,-1.0087,7.521
19.6710,3.4664,-6.3003,-0.9390,7.252
19.6800,3.5308,-6.0721,-0.6770,7.057
19.6900,3.2403,-6.0256,-0.3279,6.849
19.7000,2.8777,-6.1532,-0.2318,6.797
19.7100,2.6881,-6.2596,-0.1030,6.813
19.7680,2.6953,-6.3249,-0.0965,6.876
19.7690,2.8132,-6.3353,0.0929,6.932
19.7710,2.6959,-6.4068,0.2337,6.955
19.7720,2.4286,-6.4229,0.4978,6.885
19.7730,2.0670,-6.3343,0.5578,6.686
19.7730,1.7488,-6.1150,0.5320,6.382
19.7800,1.4925,-5.7449,0.5664,5.963
19.7910,1.1727,-5.1167,0.5440,5.277
19.8000,0.9315,-4.4018,0.6047,4.540
19.8100,0.8847,-3.7407,0.7681,3.920
19.8210,0.7648,-3.0698,0.8170,3.267
19.8300,0.6673,-2.5265,0.7068,2.707
19.8430,0.6657,-2.0306,0.7472,2.264
19.8500,0.5006,-1.5643,0.7129,1.790
19.8670,0.3596,-1.1967,0.6453,1.406
19.9120,0.1870,-0.9322,0.5388,1.093
19.9140,0.1112,-0.6532,0.4716,0.813
19.9140,0.1599,-0.5897,0.2012,0.643
19.9150,0.3888,-0.5011,0.1504,0.652
19.9150,0.5429,-0.6852,-0.0927,0.879
19.9260,0.5937,-0.8402,-0.3326,1.081
19.9300,0.5480,-0.9600,-0.6131,1.264
19.9400,0.3431,-0.9915,-0.4425,1.139
19.9500,0.0268,-0.8392,-0.0893,0.844
19.9600,-0.2634,-0.6321,0.1953,0.712
19.9710,-0.5075,-0.4428,0.3487,0.758
19.9800,-0.9074,-0.1961,0.2225,0.955
19.9920,-1.2104,0.0281,-0.0718,1.213
20.0000,-1.6606,0.4534,-0.2392,1.738
20.0120,-1.9185,0.8041,-0.3434,2.108
20.0200,-2.0635,0.9963,-0.3493,2.318
20.0630,-2.2178,0.9908,-0.3612,2.456
20.0650,-2.5248,0.8495,-0.4681,2.705
20.0660,-2.7000,0.7901,-0.4183,2.844
20.0670,-2.8378,0.7834,-0.3782,2.968
20.0780,-3.0877,0.8500,-0.0510,3.203
20.0820,-3.3065,0.9087,0.1894,3.434
20.0910,-3.4665,0.8373,0.5098,3.602
20.1010,-3.7215,1.0006,0.7601,3.928
20.1110,-3.9089,1.0543,0.8564,4.138
20.1270,-4.1642,1.1917,0.8747,4.419
20.1330,-4.6300,1.4265,0.7940,4.909
20.1790,-4.9609,1.7249,0.9249,5.333
20.1810,-5.2499,2.0700,0.9313,5.720
20.1820,-5.5547,2.3096,0.5435,6.040
20.1830,-6.1051,2.1949,0.0505,6.488
20.1840,-6.8506,1.9330,-0.4103,7.130
20.1940,-7.3115,1.8922,-0.7872,7.593
20.2000,-7.6829,2.0901,-0.8211,8.004
20.2090,-7.8949,2.3668,-0.8994,8.291
20.2230,-8.1119,2.6904,-0.6446,8.571
20.2320,-7.9695,3.2636,-0.3546,8.619
20.2410,-7.6707,4.0887,-0.0505,8.692
20.2500,-7.8233,4.5966,0.0778,9.074
20.2630,-8.2443,4.8654,0.0714,9.573
20.2780,-8.5498,4.9222,-0.1331,9.866
20.2870,-8.7016,4.9373,-0.5272,10.019
20.3350,-8.7715,4.9675,-0.6708,10.103
20.3360,-8.6045,4.9386,-0.6604,9.943
20.3380,-8.3312,4.8094,-0.5458,9.635
20.3390,-8.0633,4.4031,-0.3810,9.195
20.3400,-7.6721,3.8008,-0.0764,8.562
20.3430,-7.0725,3.1017,0.1749,7.725
20.3500,-6.4252,2.4462,0.5272,6.895
20.3600,-5.8312,2.0038,0.8309,6.222
20.3720,-5.4295,1.7300,1.0606,5.796
20.3800,-5.0366,1.4888,1.3787,5.430
20.3900,-4.8019,1.3183,1.5632,5.219
20.3990,-4.4783,1.1246,1.7196,4.927
20.4200,-4.0636,0.9004,1.9067,4.578
20.4270,-3.7123,0.8235,1.9612,4.279
20.4300,-3.3321,0.8248,1.9167,3.932
20.4640,-3.0689,0.4018,1.7283,3.545
20.4650,-2.7979,-0.1171,1.7268,3.290
20.4660,-2.5461,-0.6429,1.7097,3.134
20.4780,-2.1576,-1.1224,1.7845,3.017
20.4810,-1.7996,-1.5762,1.8372,3.016
20.4920,-1.4517,-2.2205,1.6739,3.137
20.5000,-1.0775,-2.6000,1.4223,3.153
20.5110,-0.6877,-2.9214,1.1997,3.232
20.5220,-0.3056,-3.0821,1.0682,3.276
20.5300,0.0113,-3.3374,0.9554,3.471
20.5430,0.2690,-3.5892,0.9643,3.726
20.5500,0.5679,-3.8806,1.0660,4.064
20.5630,0.8321,-4.1352,1.1041,4.360
20.5700,1.1483,-4.3424,1.1977,4.649
20.6220,1.4613,-4.5503,1.2697,4.945
20.6230,1.8375,-4.8137,1.3447,5.325
20.6240,2.0995,-5.0454,1.4097,5.644
20.6250,2.3560,-5.2465,1.5033,5.944
20.6260,2.5095,-5.5184,1.5821,6.265
20.6300,2.5535,-5.8911,1.5780,6.612
20.6420,2.7631,-6.1465,1.6956,6.949
20.6490,2.8181,-6.3196,1.5455,7.090
20.6590,3.0402,-6.5425,1.3746,7.344
20.6780,3.0715,-6.6982,1.1811,7.463
20.7340,3.0705,-6.7630,0.9242,7.485
20.7360,3.0340,-6.8490,0.7126,7.525
20.7370,3.0202,-7.0453,0.5172,7.683
20.7380,3.0580,-7.1969,0.4016,7.830
20.7400,3.1763,-7.2714,0.3712,7.944
20.7400,3.3897,-7.3263,0.4936,8.088
20.7420,3.4155,-7.5049,0.5900,8.267
20.7500,3.3260,-7.7423,0.5161,8.442
20.7600,3.2646,-8.0057,0.3135,8.651
20.7700,3.3418,-7.9910,-0.0032,8.662
20.7800,3.3519,-8.0274,-0.2966,8.704
20.7920,3.5100,-8.0301,-0.5285,8.780
20.7990,3.7969,-7.9520,-0.6263,8.834
20.8110,4.0784,-7.7441,-0.4979,8.766
20.8270,4.3252,-7.4038,-0.2912,8.580
20.8320,4.6048,-6.9037,0.1461,8.300
20.9030,4.5294,-6.3838,0.4245,7.839
20.9050,4.3385,-5.9859,0.7428,7.430
20.9060,4.0366,-5.6515,0.9980,7.016
20.9070,3.6954,-5.3801,1.2358,6.643
20.9080,3.1758,-5.2566,1.2441,6.266
20.9080,2.4057,-5.1113,0.7542,5.699
20.9090,1.8487,-5.0457,0.1458,5.376
20.9110,1.4471,-5.0091,-0.5840,5.247
20.9190,1.3589,-5.1404,-1.2011,5.451
20.9300,1.5889,-5.0621,-1.6697,5.562
20.9400,1.8973,-4.7638,-1.8540,5.453
20.9510,2.1007,-4.3701,-1.7480,5.154
20.9640,2.1555,-4.1042,-1.4828,4.867
20.9710,1.9751,-3.6069,-0.9233,4.215
21.0180,1.8302,-3.0900,-0.2856,3.603
21.0200,1.7521,-2.5981,0.2187,3.141
21.0210,1.6183,-2.3368,0.6057,2.906
21.0230,1.3352,-2.1927,0.8457,2.703
21.0240,1.1003,-1.9538,1.2045,2.545
21.0310,0.9991,-1.8953,1.4111,2.565
21.0410,1.0990,-2.0111,1.3897,2.680
21.0500,1.2857,-2.1444,1.3114,2.823
21.0610,1.4783,-2.2389,1.1425,2.916
21.0700,1.5876,-2.3405,0.6638,2.905
21.0800,1.5781,-2.2282,0.1495,2.735
21.0960,1.4653,-2.2291,-0.1218,2.670
21.1000,1.1139,-2.1217,-0.2042,2.405
21.1680,0.5043,-1.8530,-0.4211,1.966
21.1700,-0.1501,-1.5784,-0.6739,1.723
21.1710,-0.9078,-1.2541,-0.9625,1.823
21.1730,-1.7208,-0.8765,-1.1997,2.273
21.1740,-2.3759,-0.4268,-1.2246,2.707
21.1740,-2.7753,0.0961,-1.2254,3.035
21.1750,-3.0736,0.3576,-1.1133,3.289
21.1810,-3.1922,0.5136,-0.8374,3.340
21.1900,-3.3572,0.4803,-0.4487,3.421
21.2000,-3.5732,0.4357,-0.1475,3.603
21.2100,-3.6545,0.4874,0.4056,3.709
21.2190,-3.8737,0.4543,0.6955,3.962
21.2300,-4.2372,0.6885,0.8830,4.383
21.2430,-4.6995,0.7908,0.9811,4.866
21.2490,-4.8333,1.0145,1.1372,5.068
21.3030,-4.8851,1.2336,1.3693,5.221
21.3050,-5.0049,1.3689,1.6145,5.434
21.3060,-5.0404,1.4700,1.6745,5.511
21.3070,-5.1656,1.5868,1.7059,5.667
21.3070,-5.3672,1.8022,1.6306,5.892
21.3100,-5.7461,2.1404,1.2375,6.255
21.3190,-6.3737,2.1268,0.9253,6.783
21.3300,-7.1321,1.8452,0.6433,7.395
21.3400,-7.5844,1.5869,0.2783,7.754
21.3500,-7.8139,1.8753,0.2282,8.039
21.3600,-7.8347,2.3384,0.0487,8.176
21.3690,-7.9322,2.6829,0.1049,8.374
21.3800,-7.9729,3.1350,0.1619,8.569
21.4210,-7.7611,3.8680,0.2806,8.676
21.4220,-7.6628,4.3923,0.4883,8.846
21.4240,-7.8969,4.6216,0.2558,9.153
21.4250,-8.2171,4.6077,-0.1734,9.422
21.4300,-8.2953,4.5308,-0.6815,9.476
21.4410,-8.2608,4.5392,-0.9650,9.475
21.4490,-8.0676,4.5101,-0.9861,9.295
21.4590,-7.7722,4.3124,-0.8912,8.933
21.4710,-7.5773,4.0865,-0.7096,8.638
21.4790,-7.3554,3.5886,-0.4897,8.199
21.4920,-7.0085,3.1133,-0.1736,7.671
21.4990,-6.7085,2.6073,0.2296,7.201
21.5100,-6.4129,2.1892,0.5558,6.799
21.5190,-6.0482,1.6902,0.9297,6.348
21.5340,-5.6735,1.5188,1.5294,6.069
21.5840,-5.1551,1.3815,2.2368,5.787
21.5860,-4.6601,1.2828,2.4448,5.417
21.5870,-4.2070,1.2601,2.3751,4.993
21.5890,-3.7545,1.1991,2.1420,4.486
21.5900,-3.3619,0.9761,1.9955,4.030
21.5940,-2.9446,0.6815,2.0284,3.640
21.6000,-2.5265,0.3146,2.2196,3.378
21.6090,-2.2932,-0.0926,2.3367,3.275
21.6200,-2.1651,-0.5191,2.4288,3.295
21.6300,-2.0162,-0.9478,2.4118,3.283
21.6400,-1.8301,-1.3547,2.1349,3.121
21.6490,-1.5847,-1.8134,1.9974,3.129
21.6620,-1.3624,-2.3061,1.8487,3.255
21.6690,-0.9522,-2.8292,1.8010,3.486
21.7030,-0.5426,-3.3120,1.6919,3.758
21.7050,-0.1977,-3.7519,1.8137,4.172
21.7050,0.2370,-4.1085,1.8454,4.510
21.7100,0.6878,-4.3534,1.6376,4.702
21.7200,1.1569,-4.5374,1.3636,4.877
21.7300,1.5638,-4.5956,1.1938,4.999
21.7400,2.0660,-4.7620,1.0509,5.296
21.7500,2.3946,-4.9622,1.1824,5.635
21.7600,2.6073,-5.1522,1.3777,5.936
21.7690,2.8442,-5.3471,1.5397,6.249
21.7790,2.9807,-5.6191,1.6332,6.567
21.7950,3.1038,-5.9340,1.8384,6.944
21.8540,3.2623,-6.2420,1.8704,7.287
21.8560,3.3618,-6.3554,1.8742,7.430
21.8560,3.3842,-6.4211,1.6990,7.455
21.8570,3.3539,-6.6255,1.4365,7.564
21.8580,3.2763,-6.9020,1.1087,7.720
21.8590,3.2430,-7.0851,0.7654,7.830
21.8620,3.1626,-7.2411,0.6142,7.925
21.8700,3.2380,-7.2686,0.6152,7.981
21.8810,3.3684,-7.3411,0.5913,8.099
21.8920,3.2246,-7.4884,0.5688,8.173
21.9010,3.0890,-7.7832,0.4150,8.384
21.9110,3.1870,-7.9290,0.2458,8.549
21.9200,3.2648,-7.8013,-0.0527,8.457
21.9400,3.2452,-7.7404,-0.2974,8.398
21.9420,3.1481,-7.7369,-0.5210,8.369
21.9500,3.1268,-7.5616,-0.8051,8.222
21.9880,3.3108,-7.2301,-0.9355,8.007
21.9900,3.7479,-6.7908,-0.9760,7.818
21.9900,4.1803,-6.2746,-0.7720,7.579
21.9910,4.4295,-5.8908,-0.4645,7.385
22.0000,4.4569,-5.4505,0.0282,7.041
22.0100,4.4733,-5.2449,0.5465,6.915
22.0190,4.2771,-5.0871,0.9595,6.715
22.0290,3.6432,-4.9576,1.0837,6.247
22.0400,3.1125,-4.7903,0.8071,5.769
22.0490,2.5844,-4.7288,0.2005,5.393
22.0610,2.2506,-4.7440,-0.4480,5.270
22.0690,2.1488,-4.8149,-0.9890,5.365
22.0840,2.3264,-4.7748,-1.4766,5.513
22.1370,2.5099,-4.4615,-1.7588,5.413
22.1390,2.6984,-4.0965,-1.7810,5.219
22.1400,2.8284,-3.7017,-1.6465,4.941
22.1410,2.6891,-3.1694,-1.4202,4.392
22.1420,2.3617,-2.7598,-0.9822,3.763
22.1420,2.1089,-2.3329,-0.6067,3.203
22.1490,1.8132,-2.0701,-0.3717,2.777
22.1600,1.4984,-1.9661,-0.2208,2.482
22.1700,1.2735,-1.9364,-0.0683,2.319
22.1800,1.1658,-1.9423,0.0912,2.267
22.1920,1.1210,-2.1647,0.1458,2.442
22.2000,1.1672,-2.3535,0.0564,2.628
22.2110,1.2475,-2.5310,0.1049,2.824
22.2190,1.3290,-2.6268,0.0599,2.944
22.2740,1.3786,-2.8236,-0.1058,3.144
22.2750,1.3174,-2.7546,-0.0276,3.054
22.2760,0.9761,-2.6819,0.0758,2.855
22.2780,0.6129,-2.5965,0.1097,2.670
22.2780,-0.0310,-2.2615,0.2380,2.274
22.2800,-0.6139,-1.9980,0.2654,2.107
22.2920,-1.2136,-1.6572,0.4790,2.109
22.3000,-1.9243,-1.2490,0.5889,2.368
22.3100,-2.4580,-0.8550,0.7548,2.710
22.3200,-2.7670,-0.4363,0.8029,2.914
22.3320,-3.2721,0.0418,0.7500,3.357
22.3400,-3.6482,0.5546,0.6877,3.754
22.3490,-4.1869,0.8445,0.4922,4.300
22.3640,-4.6410,0.9548,0.0760,4.739
22.3690,-5.0543,1.2899,-0.4000,5.232
22.4120,-5.3876,1.4663,-0.8256,5.644
22.4130,-5.5971,1.6711,-1.2417,5.972
22.4140,-5.6643,1.9631,-1.4855,6.176
22.4150,-5.5415,2.1288,-1.5902,6.146
22.4190,-5.5158,2.2453,-1.8114,6.225
22.4300,-5.5865,2.2976,-1.8591,6.320
22.4400,-5.7140,2.4000,-2.1351,6.555
22.4490,-5.9025,2.4949,-2.3163,6.814
22.4590,-6.1099,2.6938,-2.4538,7.114
22.4690,-6.4537,2.8885,-2.4900,7.496
22.4790,-7.1645,2.7844,-2.5660,8.104
22.4950,-7.7577,2.5057,-2.5468,8.541
22.5030,-7.9181,2.5532,-2.4270,8.666
22.5560,-7.8293,2.8852,-2.2324,8.638
22.5570,-7.6286,3.0464,-2.0329,8.462
22.5580,-7.5894,2.9752,-1.9637,8.385
22.5590,-7.4219,3.0898,-1.8801,8.256
22.5600,-6.8043,3.5717,-1.5433,7.838
22.5610,-6.3795,4.1296,-1.2284,7.698
22.5740,-6.4597,4.4342,-1.0906,7.911
22.5810,-6.7999,4.3125,-1.2038,8.142
22.5920,-7.2253,4.0408,-1.2783,8.377
22.6000,-7.4063,3.8405,-1.2825,8.441
22.6110,-7.4941,3.7819,-1.1894,8.478
22.6200,-7.4461,3.8180,-1.0626,8.435
22.6380,-7.3252,3.5466,-0.9944,8.199
22.6410,-7.1743,3.2492,-0.8791,7.925
22.6490,-6.9440,2.7948,-0.8348,7.532
22.6910,-6.5008,2.3105,-0.5802,6.924
22.6930,-6.1073,1.8422,-0.3757,6.390
22.6940,-5.6213,1.5133,-0.0208,5.822
22.6950,-5.2410,1.2050,0.3868,5.392
22.6990,-4.9180,1.1206,0.9570,5.134
22.7100,-4.8230,1.1820,1.5291,5.196
22.7190,-4.6148,1.0330,1.6858,5.021
22.7290,-4.3601,0.9600,1.7500,4.795
22.7400,-4.0079,0.7201,1.7803,4.444
22.7510,-3.5879,0.2641,2.0413,4.136
22.7600,-3.1341,-0.2402,2.3293,3.912
22.7700,-2.7394,-0.6116,2.8094,3.971
22.7810,-2.4323,-0.9621,3.2078,4.139
22.8630,-2.2012,-1.3757,3.4034,4.280
22.8650,-1.9937,-1.8036,3.3064,4.261
22.8670,-1.8293,-2.2195,3.1057,4.233
22.8680,-1.4659,-2.6228,2.8893,4.168
22.8680,-1.0757,-2.9930,2.7265,4.189
22.8690,-0.6329,-3.3997,2.4562,4.242
22.8690,-0.2028,-3.7396,2.2713,4.380
22.8700,0.2445,-4.0347,1.9965,4.508
22.8720,0.6278,-4.2722,1.7837,4.672
22.8800,1.1135,-4.4015,1.6488,4.830
22.8900,1.5045,-4.5367,1.4978,5.009
22.9000,2.0186,-4.7438,1.4392,5.353
22.9120,2.4112,-4.8195,1.3940,5.566
22.9190,2.6657,-5.0094,1.4631,5.860
22.9370,3.0183,-5.1901,1.4892,6.186
22.9910,3.1383,-5.3195,1.5746,6.374
22.9930,3.2099,-5.5715,1.5999,6.626
22.9940,3.2457,-5.8686,1.5938,6.893
22.9950,3.3031,-6.0969,1.7008,7.140
22.9950,3.4166,-6.2483,1.5469,7.287
22.9960,3.4953,-6.4134,1.3944,7.436
23.0000,3.4208,-6.6166,1.1609,7.539
23.0100,3.3134,-6.7934,0.8883,7.610
23.0190,3.2274,-6.9545,0.7516,7.704
23.0310,3.1828,-7.0462,0.5811,7.753
23.0440,3.2043,-7.1847,0.4285,7.878
23.0520,3.2770,-7.0922,0.3101,7.819
23.0930,3.3205,-7.1867,0.3255,7.923
23.0950,3.3150,-7.3299,0.2959,8.050
23.0960,3.2754,-7.5519,0.2359,8.235
23.0970,3.3448,-7.5098,0.0665,8.221
23.1000,3.4031,-7.3055,-0.1014,8.060
23.1110,3.4021,-7.1968,-0.1754,7.962
23.1190,3.5190,-7.0748,-0.2211,7.905
23.1290,3.6337,-6.6858,-0.4007,7.620
23.1400,3.6796,-6.2841,-0.5199,7.301
23.1490,3.7240,-5.8774,-0.4381,6.972
23.1610,3.8350,-5.6670,-0.2702,6.848
23.1690,3.7915,-5.6959,-0.1003,6.843
23.1800,3.6178,-5.6850,-0.0314,6.739
23.2000,3.4674,-5.6024,0.1100,6.590
23.2010,3.4078,-5.3900,0.1045,6.378
23.2660,3.3578,-5.3091,-0.0709,6.282
23.2680,3.1398,-5.3599,-0.2643,6.217
23.2690,2.8680,-5.3832,-0.4598,6.117
23.2700,2.6274,-5.3135,-1.0549,6.021
23.2710,2.5852,-5.1902,-1.2304,5.927
23.2720,2.6588,-4.9704,-1.0162,5.728
23.2730,2.8671,-4.6242,-0.5659,5.470
23.2810,3.0353,-4.3126,-0.3086,5.283
23.2900,2.9418,-3.9000,-0.1610,4.888
23.2990,2.7249,-3.3925,0.0153,4.351
23.3100,2.3714,-2.9412,-0.0288,3.778
23.3190,1.9069,-2.5373,-0.0336,3.174
23.3330,1.4491,-2.1372,0.0219,2.582
23.3930,1.1010,-1.8632,0.2326,2.177
23.3940,0.7455,-1.7802,0.4865,1.990
23.3960,0.4612,-1.7009,0.6889,1.892
23.3960,0.1774,-1.5981,0.7987,1.795
23.3970,-0.0421,-1.5848,0.9008,1.823
23.3970,-0.3084,-1.5908,0.8130,1.813
23.4000,-0.5214,-1.5713,0.7639,1.823
23.4110,-0.6579,-1.5098,0.5929,1.750
23.4190,-0.7221,-1.5645,0.4509,1.781
23.4300,-0.7183,-1.5255,0.3082,1.714
23.4410,-0.9212,-1.3566,0.1229,1.644
23.4500,-1.2688,-1.1016,0.1364,1.686
23.4610,-1.7456,-0.6958,0.4032,1.922
23.4690,-2.1840,-0.3484,0.5688,2.284
23.4800,-2.6100,-0.0165,0.8593,2.748
23.5410,-3.0161,0.4031,1.1677,3.259
23.5430,-3.3389,0.8149,1.4167,3.717
23.5440,-3.7375,1.1002,1.4956,4.173
23.5450,-4.0863,1.3254,1.4470,4.533
23.5460,-4.4784,1.5555,1.4103,4.946
23.5470,-4.6995,1.7250,1.0601,5.117
23.5500,-5.0995,1.8062,0.7021,5.455
23.5610,-5.1501,1.7932,0.2290,5.458
23.5690,-4.9457,2.0058,-0.2452,5.343
23.5790,-4.9317,2.2811,-0.5867,5.465
23.5970,-4.9585,2.4400,-0.8640,5.593
23.6040,-5.2500,2.5055,-1.0924,5.919
23.6480,-5.4987,2.5437,-1.1741,6.171
23.6500,-5.7433,2.6406,-1.0139,6.402
23.6510,-6.0593,2.7922,-0.9087,6.733
23.6520,-6.5318,2.9345,-0.6828,7.193
23.6520,-7.1507,2.7197,-0.5907,7.673
23.6610,-7.6688,2.4175,-0.6860,8.070
23.6690,-7.9344,2.4669,-0.6147,8.332
23.6790,-8.0265,2.7135,-0.4018,8.482
23.6890,-8.0664,2.9006,-0.3120,8.578
23.6990,-7.9848,3.1709,-0.2899,8.596
23.7090,-7.5128,3.7351,-0.1110,8.391
23.7190,-6.8627,4.3175,0.1044,8.109
23.7300,-6.4304,4.7635,0.4575,8.016
23.7450,-6.3220,5.0450,0.4099,8.099
23.7520,-6.5764,5.0525,0.2430,8.297
23.7980,-6.8658,4.7221,-0.0321,8.333
23.8000,-6.9336,4.3095,-0.1200,8.165
23.8010,-6.7621,4.0605,-0.1561,7.889
23.8020,-6.5962,3.7297,-0.0162,7.578
23.8020,-6.3454,3.2355,0.0689,7.123
23.8110,-6.0803,2.7335,0.1077,6.667
23.8190,-5.8195,2.1744,0.0678,6.213
23.8290,-5.6298,1.7237,0.0656,5.888
23.8400,-5.5165,1.3949,0.1513,5.692
23.8490,-5.4187,1.2555,0.3782,5.575
23.8610,-5.3090,1.0573,0.6169,5.448
23.8690,-5.2174,0.9592,0.8497,5.372
23.9120,-5.0589,0.7892,1.0905,5.235
23.9130,-4.7318,0.7130,1.3700,4.978
23.9140,-4.4891,0.6433,1.6176,4.815
23.9140,-4.0864,0.5893,1.9677,4.574
23.9190,-3.6754,0.4000,2.4450,4.432
23.9300,-3.2484,0.2739,2.8863,4.354
23.9410,-3.0349,0.0085,3.0990,4.338
23.9490,-2.7579,-0.2978,3.2964,4.308
23.9600,-2.6004,-0.6571,3.2585,4.220
23.9690,-2.4123,-0.9628,3.2147,4.133
23.9800,-2.1631,-1.3254,3.1357,4.033
23.9940,-1.7312,-1.8469,2.9225,3.866
24.0000,-1.3564,-2.3332,2.8024,3.891
24.0500,-0.9983,-2.7361,2.5039,3.841
24.0520,-0.7437,-3.1522,2.2063,3.919
24.0530,-0.5146,-3.4588,1.9227,3.991
24.0540,-0.2474,-3.7906,1.6521,4.142
24.0560,0.0470,-4.0132,1.5838,4.315
24.0650,0.4260,-4.3666,1.4204,4.611
24.0710,0.9189,-4.5993,1.3627,4.884
24.0800,1.4028,-4.8512,1.0910,5.166
24.0910,1.8488,-4.9849,1.1228,5.434
24.0990,2.4384,-5.1906,1.0244,5.826
24.1110,2.7711,-5.4227,1.1227,6.192
24.1190,2.9850,-5.6136,1.2042,6.471
24.1290,3.1117,-5.8320,1.1566,6.711
24.1390,3.2260,-6.0936,1.0630,6.976
24.1800,3.3858,-6.3173,0.8786,7.221
24.1820,3.4487,-6.5427,0.7362,7.433
24.1830,3.3582,-6.7113,0.5439,7.524
24.1840,3.2965,-6.8238,0.5887,7.601
24.1880,3.3036,-7.0734,0.5115,7.824
24.1990,3.3269,-7.1256,0.4220,7.875
24.2090,3.4485,-7.1261,0.3586,7.925
24.2190,3.4821,-7.2756,0.4183,8.077
24.2290,3.3562,-7.4652,0.3473,8.192
24.2380,3.3967,-7.7795,0.0694,8.489
24.2490,3.5560,-7.8585,-0.2666,8.630
24.2600,3.6666,-7.8407,-0.5549,8.673
24.2690,3.8479,-7.9006,-0.8094,8.825
24.2820,4.0237,-8.0316,-0.8122,9.020
24.2880,4.2894,-7.9014,-0.7497,9.022
24.3290,4.4923,-7.6268,-0.5879,8.871
24.3310,4.6799,-7.1496,-0.2856,8.550
24.3330,4.5071,-6.5381,0.0618,7.941
24.3340,4.4620,-6.0393,0.4547,7.523
24.3450,4.3050,-5.4527,1.0126,7.021
24.3500,4.0406,-5.1356,1.4192,6.687
24.3590,3.8078,-4.9894,1.7675,6.521
24.3700,3.4483,-4.9166,1.9167,6.304
24.3790,3.1346,-4.9078,1.6789,6.061
24.3920,2.9045,-4.9645,1.0620,5.849
24.4000,2.6808,-5.0628,0.2866,5.736
24.4110,2.5065,-5.0416,-0.4515,5.648
24.4700,2.4184,-4.9505,-0.8325,5.572
24.4720,2.5401,-4.7932,-0.8532,5.491
24.4730,2.5371,-4.5143,-0.8902,5.254
24.4740,2.4643,-4.3055,-0.7228,5.013
24.4750,2.1245,-3.8695,-0.3214,4.426
24.4760,1.8118,-3.3644,0.1926,3.826
24.4850,1.5868,-2.8908,0.5353,3.341
24.4920,1.2735,-2.5678,0.7428,2.961
24.4990,0.8511,-2.1720,0.9726,2.527
24.5100,0.5424,-1.8269,1.0571,2.179
24.5190,0.2839,-1.6159,1.1240,1.989
24.5310,0.1467,-1.4725,1.0306,1.803
24.5390,0.0150,-1.4161,0.9017,1.679
24.5500,0.0481,-1.5067,0.6888,1.657
24.5970,0.2174,-1.5180,0.2966,1.562
24.5990,0.2934,-1.6765,0.0239,1.702
24.6000,0.1055,-1.5703,-0.1650,1.582
24.6010,-0.1651,-1.4103,-0.2963,1.451
24.6020,-0.5007,-1.1998,-0.1963,1.315
24.6130,-0.8095,-1.0265,-0.0768,1.310
24.6220,-1.3023,-0.7706,0.1216,1.518
24.6310,-1.8353,-0.3603,0.0560,1.871
24.6420,-2.4285,0.1190,-0.0355,2.432
24.6490,-2.9077,0.5720,-0.2129,2.971
24.6610,-3.2031,0.9761,-0.3347,3.365
24.6690,-3.5928,1.3286,-0.4827,3.861
24.6800,-3.8841,1.4407,-0.6688,4.196
24.7000,-4.0262,1.3581,-1.0300,4.372
24.7030,-4.2711,1.2954,-1.3269,4.656
24.7560,-4.5060,1.4035,-1.4041,4.924
24.7580,-4.7029,1.6255,-1.3496,5.156
24.7590,-5.0610,1.7307,-1.2339,5.489
24.7600,-5.2655,1.7779,-1.0496,5.656
24.7600,-5.3712,1.8086,-0.8081,5.725
24.7610,-5.4391,1.9711,-0.6741,5.824
24.7690,-5.7165,2.2157,-0.4953,6.151
24.7800,-5.9641,2.3715,-0.3301,6.427
24.7900,-6.2866,2.4579,-0.2037,6.753
24.7990,-6.5553,2.5336,-0.1806,7.030
24.8100,-6.9487,2.4389,-0.5110,7.382
24.8210,-7.6365,1.9263,-0.9352,7.931
24.8310,-8.0183,1.5500,-1.2577,8.263
24.8450,-8.0840,1.3815,-1.4517,8.329
24.8510,-7.9253,1.5314,-1.3623,8.186
24.9020,-7.8829,1.6654,-1.2197,8.149
24.9040,-7.8149,2.0051,-0.9007,8.118
24.9050,-7.1985,2.6845,-0.4696,7.697
24.9080,-6.5540,3.7165,-0.1350,7.536
24.9090,-6.1600,4.4904,0.1805,7.625
24.9190,-6.4333,4.8391,-0.0039,8.050
24.9210,-6.8398,4.7849,-0.3765,8.356
24.9290,-7.1160,4.8318,-0.7419,8.633
24.9390,-7.1040,4.8562,-0.7836,8.641
24.9490,-6.9546,4.7354,-0.6569,8.439
24.9630,-6.7208,4.3883,-0.6726,8.055
24.9690,-6.3270,3.8530,-0.6778,7.439
24.9820,-5.9476,3.2240,-0.5777,6.790
25.0330,-5.6299,2.5811,-0.4375,6.209
25.0340,-5.2579,1.9351,-0.2187,5.607
25.0350,-5.0082,1.4789,-0.0382,5.222
25.0370,-4.7762,1.0362,0.3252,4.898
25.0380,-4.4597,0.7716,0.5879,4.564
25.0390,-4.1327,0.4899,0.9083,4.260
25.0520,-3.9757,0.2177,1.2634,4.177
25.0600,-3.5891,0.1389,1.6305,3.945
25.0690,-3.3186,0.2065,1.8339,3.797
25.0790,-3.0801,0.2075,1.8207,3.584
25.0890,-3.0179,0.1224,1.8903,3.563
25.1000,-2.7792,-0.2030,1.8297,3.334
25.1120,-2.4973,-0.7158,2.1515,3.373
25.1650,-2.0566,-1.2083,2.5090,3.462
25.1670,-1.6631,-1.7330,2.7298,3.636
25.1680,-1.1670,-2.1207,2.7457,3.660
25.1690,-0.7095,-2.5268,2.9048,3.915
25.1700,-0.3621,-2.8634,2.8428,4.051
25.1710,0.0688,-3.2113,2.9282,4.346
25.1810,0.4552,-3.4800,2.7580,4.464
25.1920,0.9196,-3.7773,2.4958,4.620
25.1990,1.2458,-4.0442,2.0206,4.689
25.2100,1.6757,-4.2015,1.6957,4.831
25.2190,2.0887,-4.3201,1.6241,5.066
25.2290,2.5495,-4.4437,1.5169,5.343
25.2380,2.8296,-4.4746,1.4571,5.491
25.2530,3.1001,-4.5326,1.5209,5.698
25.3010,3.1769,-4.5394,1.5930,5.765
25.3030,3.2737,-4.7330,1.6795,5.995
25.3040,3.2618,-4.9212,1.5326,6.100
25.3060,3.2722,-5.1987,1.4105,6.303
25.3070,3.4057,-5.4542,1.4472,6.591
25.3160,3.5625,-5.7874,1.4588,6.951
25.3200,3.7525,-5.9031,1.4713,7.148
25.3290,3.8383,-6.0848,1.3862,7.327
25.3390,3.7529,-6.2790,1.1965,7.412
25.3490,3.7318,-6.4101,1.0354,7.489
25.3590,3.5215,-6.4482,0.8750,7.399
25.3700,3.4435,-6.4114,0.7686,7.318
25.3790,3.3494,-6.4238,0.6940,7.278
25.3980,3.2110,-6.4307,0.5650,7.210
25.4000,2.9850,-6.6652,0.4116,7.315
25.4580,2.7483,-7.0144,0.0370,7.534
25.4600,2.6005,-7.1984,-0.2685,7.658
25.4610,2.7915,-7.2794,-0.6363,7.822
25.4630,2.7998,-7.2428,-1.1411,7.848
25.4640,2.7686,-7.3079,-1.4603,7.950
25.4640,3.0518,-7.1973,-1.7701,8.015
25.4690,3.4543,-6.9132,-1.8559,7.948
25.4800,4.0795,-6.4146,-1.5639,7.761
25.4900,4.4623,-5.8434,-0.9315,7.411
25.4990,4.3387,-5.3013,-0.3621,6.860
25.5100,4.2309,-4.7778,0.2449,6.387
25.5190,3.8840,-4.4465,0.6247,5.937
25.5330,3.3039,-4.1905,0.8856,5.409
25.5380,2.7350,-4.0554,1.0970,5.013
25.6120,2.2206,-4.0671,1.1858,4.783
25.6130,1.8948,-4.1321,1.2963,4.727
25.6140,1.8399,-4.2891,1.1757,4.813
25.6150,1.9057,-4.6274,0.8673,5.079
25.6160,1.9134,-4.7160,0.4737,5.111
25.6170,1.8677,-4.6120,0.2091,4.980
25.6180,1.8275,-4.1576,0.0363,4.542
25.6190,1.7465,-3.6621,0.1419,4.060
25.6300,1.4378,-3.1031,0.1945,3.426
25.6440,1.1444,-2.5691,0.2271,2.822
25.6490,0.8047,-1.8965,0.3259,2.086
25.6590,0.5448,-1.3820,0.4284,1.546
25.6690,0.1970,-0.8820,0.5861,1.077
25.6800,-0.3104,-0.4492,0.5905,0.804
25.6890,-0.7242,-0.1380,0.6022,0.952
25.7440,-0.9806,0.0610,0.6523,1.179
25.7460,-1.0536,0.2266,0.4233,1.158
25.7460,-0.9514,0.3022,0.3251,1.050
25.7470,-0.6344,0.1091,-0.1025,0.652
25.7480,-0.4912,-0.0634,-0.4902,0.697
25.7490,-0.3775,-0.0802,-0.9359,1.012
25.7610,-0.2583,-0.1027,-1.1845,1.217
25.7680,-0.2023,-0.1671,-1.1847,1.213
25.7790,-0.1643,-0.0449,-1.1125,1.125
25.7890,-0.4390,0.2623,-0.8007,0.950
25.7990,-0.7618,0.4656,-0.2017,0.915
25.8130,-0.9614,0.6322,0.3235,1.195
25.8220,-1.2926,0.8884,0.6623,1.703
25.8830,-1.7185,1.1166,0.8887,2.234
25.8850,-2.2078,1.3574,1.0626,2.801
25.8860,-2.4560,1.5364,0.9567,3.051
25.8870,-2.7077,1.5635,0.3918,3.151
25.8870,-2.9114,1.4832,-0.3343,3.285
25.8880,-3.2171,1.4106,-0.8749,3.620
25.8890,-3.3406,1.3677,-1.2057,3.806
25.8990,-3.6649,1.2964,-1.3469,4.114
25.9090,-3.8417,1.2457,-1.4554,4.293
25.9190,-4.0171,1.2712,-1.3719,4.431
25.9290,-4.3258,1.4455,-1.0920,4.690
25.9390,-4.6603,1.4454,-0.7271,4.933
25.9500,-5.0501,1.3879,-0.5346,5.265
26.0460,-5.4992,1.3640,-0.3587,5.677
26.0470,-5.7378,1.4578,-0.1525,5.922
26.0480,-5.7927,1.6888,0.1236,6.035
26.0490,-5.8175,1.9704,0.2295,6.146
26.0500,-6.1620,2.0745,0.0627,6.502
26.0510,-6.5758,1.9605,-0.2309,6.866
26.0510,-6.9001,2.0170,-0.2277,7.192
26.0510,-6.7791,2.2574,-0.1029,7.146
26.0520,-6.6109,2.5961,0.2397,7.106
26.0530,-6.5957,2.7746,0.3477,7.164
26.0600,-6.6382,2.7603,0.4153,7.201
26.0690,-6.4131,2.9845,0.4324,7.087
26.0790,-5.7803,3.4166,0.6183,6.743
26.0900,-5.2199,3.9489,0.7665,6.590
26.1020,-5.1645,4.0944,0.7745,6.636
26.1590,-5.5621,3.9110,0.5074,6.818
26.1610,-5.8178,3.5412,0.1690,6.813
26.1620,-5.9674,3.2888,-0.0979,6.814
26.1620,-5.9575,3.1591,-0.1551,6.745
26.1630,-5.9686,2.9958,-0.0779,6.679
26.1640,-5.9254,2.8904,0.0660,6.593
26.1690,-5.8364,2.6410,-0.0785,6.407
26.1790,-5.5530,2.2707,-0.1427,6.001
26.1880,-5.2536,1.8609,-0.2060,5.577
26.1980,-4.8816,1.4731,-0.0835,5.100
26.2090,-4.5259,1.1321,0.2218,4.671
26.2180,-4.1811,0.8840,0.6559,4.324
26.2290,-3.9772,0.6619,1.1019,4.180
26.2380,-3.7667,0.5768,1.4088,4.063
26.2820,-3.6226,0.5196,1.6462,4.013
26.2840,-3.3580,0.4227,1.9871,3.925
26.2840,-3.0824,0.4101,2.1641,3.789
26.2850,-2.7310,0.3543,2.4543,3.689
26.2930,-2.4637,0.1852,2.6735,3.640
26.2990,-2.1860,0.0084,2.8931,3.626
26.3090,-1.9280,-0.2274,3.1150,3.670
26.3190,-1.6557,-0.5172,3.0106,3.475
26.3290,-1.3265,-0.7743,2.9911,3.362
26.3380,-1.1911,-1.1283,2.9090,3.340
26.3490,-0.9440,-1.5290,2.5725,3.138
26.3630,-0.7794,-1.9319,2.1831,3.018
26.3680,-0.5189,-2.3232,1.8958,3.043
26.4190,-0.2497,-2.5714,1.5250,3.000
26.4210,0.1173,-2.8623,1.2113,3.110
26.4220,0.5542,-3.1971,0.9876,3.392
26.4220,1.0211,-3.4497,0.8662,3.700
26.4240,1.4344,-3.8503,0.7417,4.175
26.4300,1.9870,-4.1091,0.9650,4.665
26.4390,2.5227,-4.3818,1.1749,5.191
26.4480,2.9328,-4.5238,1.3049,5.547
26.4600,3.2930,-4.6964,1.4447,5.915
26.4680,3.4897,-4.9571,1.6044,6.271
26.4790,3.6448,-5.1616,1.8141,6.574
26.4880,3.8051,-5.4532,1.9852,6.940
26.4980,3.7995,-5.5734,2.0790,7.058
26.5130,3.8643,-5.7166,1.8217,7.137
26.5710,3.9314,-5.8511,1.5167,7.210
26.5720,3.8359,-6.0292,1.0229,7.219
26.5740,3.8686,-6.2205,0.5339,7.345
26.5760,3.8832,-6.3411,0.1762,7.438
26.5760,3.9235,-6.4645,-0.1996,7.565
26.5770,4.0424,-6.5750,-0.5120,7.735
26.5780,4.1491,-6.7130,-0.6222,7.916
26.5880,4.1911,-6.9060,-0.7276,8.111
26.5990,3.9133,-7.0261,-0.8510,8.087
26.6090,3.6049,-7.1684,-1.1085,8.100
26.6180,3.3954,-7.0413,-1.3885,7.940
26.6290,3.2723,-6.5757,-1.7338,7.547
26.6380,3.0182,-6.1165,-1.9772,7.101
26.6480,2.6424,-5.8232,-2.2017,6.763
26.7040,2.3026,-5.5593,-2.3205,6.449
26.7060,2.2718,-5.2300,-2.3921,6.184
26.7080,2.7178,-4.7955,-1.9100,5.834
26.7100,3.0713,-4.4722,-1.3531,5.591
26.7100,3.2554,-4.4600,-0.8282,5.583
26.7110,3.2644,-4.6627,-0.2785,5.699
26.7200,3.2033,-4.8949,-0.0816,5.850
26.7300,3.0815,-5.1078,0.1145,5.966
26.7390,3.0758,-5.3080,0.4573,6.152
26.7490,2.9749,-5.3443,0.6846,6.155
26.7590,2.5197,-5.4124,0.7275,6.014
26.7680,2.0195,-5.3169,0.7694,5.739
26.7790,1.6806,-5.1543,0.8368,5.486
26.7880,1.4670,-4.6483,0.9531,4.967
26.8070,1.3522,-4.1077,1.1061,4.464
26.8100,1.3036,-3.4605,1.3981,3.953
26.8200,1.1762,-2.7429,1.5100,3.345
26.8980,1.0484,-2.0437,1.4870,2.736
26.8990,0.9179,-1.4513,1.4792,2.266
26.9000,0.6320,-0.9290,1.5086,1.881
26.9010,0.2068,-0.4520,1.4531,1.536
26.9020,-0.1542,-0.0723,1.2729,1.284
26.9030,-0.4963,0.3167,0.7471,0.951
26.9030,-0.6120,0.4404,0.0476,0.755
26.9040,-0.5684,0.4840,-0.5954,0.955
26.9110,-0.3777,0.3832,-1.1128,1.236
26.9190,-0.2389,0.3116,-1.5256,1.575
26.9330,-0.0500,0.1708,-1.6398,1.649
26.9400,0.1928,0.0323,-1.4660,1.479
26.9970,0.4073,-0.2081,-1.3505,1.426
26.9990,0.4902,-0.2924,-1.0252,1.173
27.0000,0.3528,-0.2841,-0.6585,0.799
27.0000,0.0131,-0.1823,-0.1836,0.259
27.0010,-0.4100,-0.1154,0.1055,0.439
27.0010,-0.8889,0.2286,0.3880,0.996
27.0110,-1.3975,0.5508,0.4602,1.571
27.0190,-1.7628,0.7260,0.4621,1.962
27.0280,-2.1288,0.8265,0.3875,2.316
27.0400,-2.3878,0.8217,0.3229,2.546
27.0490,-2.6753,0.6940,0.1306,2.767
27.0640,-2.9196,0.6255,-0.0198,2.986
27.1190,-3.0529,0.6300,-0.1361,3.120
27.1210,-3.1101,0.5316,-0.1926,3.161
27.1220,-3.3476,0.2659,-0.2990,3.371
27.1230,-3.6737,0.2298,-0.3526,3.698
27.1230,-3.9378,0.4207,-0.4081,3.981
27.1250,-3.9826,0.6388,-0.2688,4.042
27.1310,-4.2673,0.7828,-0.4315,4.360
27.1390,-4.5387,1.0631,-0.3603,4.675
27.1490,-4.7511,1.2102,-0.2694,4.910
27.1590,-5.1850,1.4228,-0.3559,5.388
27.1690,-5.8637,1.4993,-0.6200,6.084
27.1800,-6.5514,1.5599,-0.7674,6.778
27.1890,-7.1604,1.5594,-0.9020,7.384
27.1990,-7.6368,1.8577,-1.0472,7.929
27.2170,-7.8034,2.2179,-1.0261,8.177
27.2250,-7.8104,2.4884,-0.9308,8.250
27.2930,-7.4375,2.7435,-0.8017,7.968
27.2950,-6.8472,3.1446,-0.5920,7.558
27.2960,-6.1173,3.7310,-0.3564,7.174
27.2970,-5.9488,4.3070,-0.5543,7.365
27.2980,-6.3487,4.6017,-0.9223,7.895
27.2980,-6.8663,4.5352,-1.1838,8.314
27.2990,-7.0979,4.4097,-1.3578,8.466
27.3000,-7.0767,4.1195,-1.2977,8.291
27.3100,-7.0397,3.8643,-0.9912,8.092
27.3190,-6.7698,3.4823,-0.6958,7.645
27.3290,-6.3907,3.0683,-0.4233,7.102
27.3400,-5.9398,2.3464,-0.4483,6.402
27.3490,-5.5568,1.8619,-0.1795,5.863
27.3650,-5.2036,1.5634,-0.0839,5.434
27.3740,-4.8793,1.1911,0.1313,5.024
27.4370,-4.7319,0.9689,0.3487,4.843
27.4390,-4.5053,0.8885,0.6628,4.640
27.4400,-4.2552,0.8906,1.0160,4.465
27.4410,-4.0200,0.9554,1.2264,4.310
27.4420,-3.7104,0.9700,1.5603,4.140
27.4430,-3.3553,0.8952,1.6310,3.837
27.4440,-2.8729,0.7685,1.9123,3.536
27.4510,-2.4045,0.5099,2.3013,3.367
27.4590,-2.0036,0.3022,2.5651,3.269
27.4690,-1.7452,-0.0566,2.8011,3.301
27.4830,-1.3960,-0.2484,3.0202,3.336
27.4900,-1.2075,-0.5917,3.1682,3.442
27.5650,-0.9419,-1.0795,3.1899,3.497
27.5660,-0.7040,-1.4634,2.9739,3.388
27.5680,-0.2845,-1.7645,2.8753,3.386
27.5680,0.0308,-2.1073,2.5996,3.347
27.5690,0.4409,-2.4931,2.2075,3.359
27.5700,0.7069,-2.8321,1.8012,3.430
27.5700,1.0391,-3.1388,1.5411,3.648
27.5710,1.3383,-3.4320,1.3970,3.940
27.5810,1.6661,-3.6178,1.2628,4.178
27.5880,1.8578,-3.7790,1.3214,4.413
27.5980,2.0793,-3.8634,1.5206,4.643
27.6130,2.3413,-3.8435,1.6490,4.793
27.6190,2.6330,-3.8449,1.6940,4.958
27.6730,2.8134,-3.9737,1.4689,5.086
27.6750,2.9833,-4.2262,1.2539,5.323
27.6770,3.2026,-4.6734,1.2795,5.808
27.6770,3.4338,-5.0612,1.2822,6.249
27.6790,3.7879,-5.4334,1.2403,6.739
27.6800,3.9818,-5.6555,1.0573,6.997
27.6890,4.0685,-5.9039,0.7237,7.206
27.6990,4.0033,-6.0736,0.1903,7.277
27.7090,3.9522,-6.2595,-0.4892,7.419
27.7180,3.7425,-6.4913,-1.0221,7.562
27.7300,3.7578,-6.4482,-1.4319,7.599
27.7380,3.8179,-6.4375,-1.7574,7.688
27.7540,3.8739,-6.4168,-1.8469,7.720
27.8070,3.7449,-6.5890,-1.8880,7.810
27.8100,3.4614,-6.7276,-1.7455,7.765
27.8110,3.2607,-6.8850,-1.7003,7.806
27.8120,3.1623,-6.6984,-1.5800,7.574
27.8130,2.9894,-6.4281,-1.2527,7.199
27.8130,2.9031,-6.3769,-0.9332,7.068
27.8190,2.9397,-6.2261,-0.8589,6.939
27.8300,3.1710,-6.0478,-0.7579,6.871
27.8380,3.5393,-5.6206,-0.3913,6.654
27.8500,3.7383,-5.3574,-0.0561,6.533
27.8600,3.7336,-5.2180,0.3217,6.424
27.8690,3.6014,-5.0340,0.6899,6.228
27.8820,3.3999,-4.7230,1.1096,5.924
27.8890,3.2859,-4.5153,1.4891,5.779
27.9070,2.9630,-4.4344,1.8828,5.656
27.9800,2.6692,-4.6098,1.7887,5.619
27.9820,2.4198,-4.6157,1.4273,5.404
27.9830,2.3129,-4.5453,0.8172,5.165
27.9840,2.1968,-4.1140,0.2373,4.670
27.9850,2.1506,-3.6230,-0.0712,4.214
27.9850,2.1483,-3.1442,-0.2896,3.819
27.9860,2.0447,-2.5589,-0.3420,3.293
27.9870,1.9224,-2.0960,-0.1961,2.851
27.9890,1.7800,-1.6190,-0.1299,2.410
27.9990,1.5608,-1.0962,-0.1727,1.915
28.0080,1.2051,-0.7588,-0.3260,1.461
28.0180,0.9862,-0.4298,-0.5293,1.199
28.0360,0.8403,-0.2632,-0.7220,1.139
28.0390,0.8621,-0.2374,-1.0035,1.344
28.0940,0.9538,-0.3902,-1.1084,1.514
28.0960,1.2243,-0.6902,-1.1352,1.807
28.0970,1.4026,-0.9357,-0.8764,1.900
28.0980,1.5650,-1.2029,-0.6959,2.093
28.0980,1.5502,-1.3665,-0.3975,2.104
28.1000,1.3953,-1.4971,-0.0250,2.047
28.1100,0.9991,-1.5152,0.3590,1.850
28.1180,0.4445,-1.2851,0.6306,1.499
28.1290,-0.0923,-1.0567,0.5708,1.205
28.1390,-0.6770,-0.6334,0.6884,1.155
28.1490,-1.3063,-0.1753,0.5459,1.427
28.1580,-1.8978,0.3313,0.4017,1.968
28.1730,-2.3958,0.7947,0.1957,2.532
28.2210,-2.8701,1.0399,-0.0214,3.053
28.2230,-3.1607,1.1281,-0.1472,3.359
28.2240,-3.3917,1.0540,-0.3841,3.572
28.2250,-3.7473,0.9115,-0.4681,3.885
28.2270,-4.0012,0.9059,-0.4086,4.123
28.2320,-4.2839,1.0098,-0.3689,4.417
28.2390,-4.4834,1.0921,-0.2545,4.622
28.2480,-4.6783,1.2329,-0.1766,4.841
28.2600,-4.8985,1.5907,0.0511,5.151
28.2680,-5.2348,1.8173,0.1880,5.544
28.2800,-5.7572,2.0748,0.2464,6.125
28.2880,-6.0580,2.3333,0.1437,6.493
28.3000,-6.2209,2.4877,0.0604,6.700
28.3090,-6.2207,2.5378,-0.0560,6.719
28.3210,-6.3984,2.6411,-0.4165,6.935
28.4000,-6.9779,2.4428,-0.8097,7.437
28.4010,-7.5437,2.2259,-1.0404,7.934
28.4020,-7.9820,2.1940,-1.2526,8.372
28.4030,-8.1091,2.3028,-1.1425,8.507
28.4040,-8.2023,2.4954,-1.0124,8.633
28.4050,-8.1215,2.6183,-0.6495,8.558
28.4060,-7.8332,3.2879,-0.4694,8.508
28.4060,-7.6885,4.1342,-0.3118,8.735
28.4120,-7.9184,4.4892,-0.5160,9.117
28.4190,-8.3637,4.4581,-0.7442,9.507
28.4290,-8.6841,4.2626,-1.0208,9.728
28.4390,-8.8080,3.9091,-0.9156,9.680
28.4510,-8.5664,3.4906,-0.6821,9.275
28.5130,-8.2973,3.2588,-0.3501,8.921
28.5150,-7.8797,2.8754,-0.1297,8.389
28.5150,-7.4115,2.4658,-0.0860,7.811
28.5160,-7.0370,1.9142,-0.1554,7.294
28.5170,-6.5518,1.3923,-0.1913,6.701
28.5180,-6.1169,0.9341,0.0051,6.188
28.5190,-5.6129,0.4843,0.2755,5.641
28.5310,-5.1010,0.0120,0.7747,5.160
28.5380,-4.4210,-0.1898,1.2720,4.604
28.5490,-3.9400,-0.3207,1.8196,4.352
28.5610,-3.5535,-0.3314,2.4528,4.331
28.5690,-3.1224,-0.3760,2.7072,4.150
28.5820,-2.7260,-0.4556,3.0528,4.118
28.5890,-2.0569,-0.4470,3.1254,3.768
28.6070,-1.7475,-0.5562,3.3562,3.825
28.6180,-1.5044,-0.7896,3.4575,3.852
28.6190,-1.3381,-1.0864,3.5482,3.945
28.6950,-1.1357,-1.2737,3.4899,3.885
28.6970,-0.9144,-1.5566,3.3691,3.822
28.6980,-0.7976,-1.9186,3.0948,3.728
28.6980,-0.5863,-2.1544,2.6815,3.489
28.6990,-0.2843,-2.4260,2.1112,3.229
28.7000,0.0117,-2.7147,1.8277,3.273
28.7000,0.3972,-3.1012,1.5385,3.485
28.7010,0.7662,-3.3262,1.4278,3.700
28.7090,1.0396,-3.5666,1.2994,3.936
28.7190,1.3858,-3.8538,1.1495,4.254
28.7330,1.8146,-4.1031,1.0461,4.607
28.7380,2.2983,-4.3493,1.0030,5.020
28.8200,2.6601,-4.5313,1.0207,5.353
28.8210,3.0208,-4.7395,1.0725,5.722
28.8220,3.4795,-4.7805,1.2728,6.048
28.8230,3.6879,-5.0393,1.4699,6.415
28.8240,3.7978,-5.2264,1.5423,6.642
28.8250,3.8547,-5.4116,1.4851,6.808
28.8260,3.7904,-5.7733,1.2459,7.018
28.8270,3.7033,-6.1036,1.1081,7.225
28.8310,3.6398,-6.3649,0.9749,7.397
28.8390,3.6663,-6.5613,0.8502,7.564
28.8490,3.7127,-6.7359,0.8196,7.735
28.8650,3.8022,-6.9243,0.7337,7.934
28.8700,3.9739,-7.0574,0.6867,8.128
28.9240,4.1858,-7.1108,0.6297,8.275
28.9270,4.1318,-7.3059,0.5323,8.410
28.9280,3.9036,-7.6127,0.3544,8.563
28.9290,3.8228,-7.8688,0.0406,8.748
28.9300,3.7783,-7.7812,-0.1928,8.652
28.9300,3.6423,-7.7423,-0.3814,8.565
28.9380,3.4673,-7.6580,-0.5095,8.422
28.9490,3.5260,-7.3633,-0.4688,8.177
28.9580,3.7621,-7.0746,-0.2449,8.016
28.9680,4.0874,-6.6527,0.0129,7.808
28.9800,4.3434,-6.2465,0.4080,7.619
28.9880,4.4816,-5.7056,0.7363,7.293
29.0040,4.4103,-5.2492,1.1242,6.948
29.0610,4.1916,-4.9713,1.2936,6.630
29.0630,3.8588,-4.7640,1.2134,6.250
29.0640,3.4981,-4.6917,0.9250,5.925
29.0650,3.2334,-4.7158,0.4460,5.735
29.0650,3.0996,-4.7790,-0.1566,5.698
29.0660,3.1528,-4.9396,-0.5930,5.890
29.0690,3.1375,-5.2050,-1.0834,6.173
29.0800,3.0386,-5.2416,-1.5144,6.245
29.0880,2.7186,-5.1988,-1.6147,6.085
29.0980,2.3845,-4.8745,-1.2742,5.574
29.1100,2.2729,-4.4164,-0.6274,5.006
29.1180,2.0502,-3.8943,0.0277,4.401
29.1300,1.6489,-3.3679,0.4472,3.776
29.1380,1.1589,-2.5222,0.8088,2.891
29.1490,0.5063,-1.7120,1.1115,2.103
29.2340,-0.0957,-1.0091,1.3646,1.700
29.2350,-0.7503,-0.4015,1.1252,1.411
29.2360,-1.3817,0.0581,0.7678,1.582
29.2360,-1.5885,0.3789,0.0537,1.634
29.2370,-1.4281,0.4385,-0.7278,1.662
29.2380,-1.2213,0.3224,-1.3877,1.877
29.2390,-0.8229,0.1321,-1.6766,1.872
29.2390,-0.3946,-0.0837,-1.8699,1.913
29.2400,-0.0961,-0.3923,-1.9016,1.944
29.2500,0.1421,-0.6711,-1.7725,1.901
29.2580,0.1249,-0.8006,-1.5571,1.755
29.2680,-0.3645,-0.5738,-1.0777,1.274
29.2860,-1.4626,0.0219,-0.4742,1.538
29.3770,-2.5191,0.6030,0.0614,2.591
29.3780,-3.1523,1.0296,0.1855,3.321
29.3790,-3.3067,1.1805,0.3041,3.524
29.3800,-3.2795,1.4174,0.1506,3.576
29.3800,-3.2029,1.6567,-0.0719,3.607
29.3810,-3.2026,1.8465,-0.3443,3.713
29.3810,-3.4162,1.8751,-0.6775,3.955
29.3820,-3.5758,1.8427,-0.9011,4.122
29.3820,-3.6413,1.7615,-1.0599,4.182
29.3830,-3.8428,1.7321,-1.0736,4.350
29.3880,-4.1658,1.7870,-0.9493,4.631
29.3990,-4.4182,1.8688,-0.7243,4.852
29.4080,-4.4117,1.9378,-0.3958,4.835
29.4210,-4.3587,1.9297,-0.1718,4.770
29.4890,-4.4173,1.8356,0.0219,4.784
29.4910,-4.4803,1.7013,0.2135,4.797
29.4920,-4.5053,1.7811,0.5177,4.872
29.4930,-4.4704,1.8341,0.7693,4.893
29.4940,-4.5216,1.8482,0.8991,4.967
29.4940,-5.0205,1.7490,0.7715,5.372
29.4950,-5.8114,1.4054,0.4775,5.998
29.4990,-6.2921,1.2196,0.1784,6.412
29.5080,-6.4607,1.1674,0.1202,6.566
29.5180,-6.5728,1.3888,0.2563,6.723
29.5290,-6.6507,1.5240,0.3462,6.832
29.5380,-6.6527,1.7609,0.6336,6.911
29.5490,-6.3861,2.4631,0.9061,6.904
29.5580,-5.9070,3.3096,1.1319,6.865
29.5690,-5.8471,3.9023,1.0807,7.112
29.6340,-6.0905,3.9696,0.8045,7.314
29.6350,-6.4046,3.7682,0.2605,7.435